skipTrain1Type.keys,skipTrain1Type.rt,train1Words.thisRepN,train1Words.thisTrialN,train1Words.thisN,train1Words.thisIndex,train1Words.ran,audio,imageLoc,participant,ID Number,date,expName,psychopyVersion,OS,frameRate,train1QuestAdvance.keys,train1QuestAdvance.rt,break_loop.thisRepN,break_loop.thisTrialN,break_loop.thisN,break_loop.thisIndex,break_loop.ran,train1Response.keys,train1Response.rt,train1Questions.thisRepN,train1Questions.thisTrialN,train1Questions.thisN,train1Questions.thisIndex,train1Questions.ran,audioTrue,imageTrue,currentPhase,imageFalse,truePos,falsePos,trial1phases.thisRepN,trial1phases.thisTrialN,trial1phases.thisN,trial1phases.thisIndex,trial1phases.ran,condFiles,testFiles,alltrain1.thisRepN,alltrain1.thisTrialN,alltrain1.thisN,alltrain1.thisIndex,alltrain1.ran,condFile,numWords,skipTest1Instr.keys,skipTest1Instr.rt,key_resp.keys,key_resp.rt,test1Response.keys,test1Response.rt,test1Loop.thisRepN,test1Loop.thisTrialN,test1Loop.thisN,test1Loop.thisIndex,test1Loop.ran,firstAudio,secondAudio,whichAudio,feedback,skipTest2Instr.keys,skipTest2Instr.rt,key_resp_2.keys,key_resp_2.rt,test2Response.keys,test2Response.rt,test2Loop.thisRepN,test2Loop.thisTrialN,test2Loop.thisN,test2Loop.thisIndex,test2Loop.ran,skipTest3Instr.keys,skipTest3Instr.rt,test3Response.keys,test3Response.rt,test3Loop.thisRepN,test3Loop.thisTrialN,test3Loop.thisN,test3Loop.thisIndex,test3Loop.ran,skipPostTestInstr.keys,skipPostTestInstr.rt,postTestResponse.keys,postTestResponse.rt,postTestLoop.thisRepN,postTestLoop.thisTrialN,postTestLoop.thisN,postTestLoop.thisIndex,postTestLoop.ran,audioA,audioX,audioB,correctLabel,quit.keys,quit.rt
space,5.93109,0,0,0,0,1,trainingaudio/06_titoka1.wav,pngimages/06_tent.png,Hiba Zouity,2035,2021-04-13_09h05.57.874,experiment,2020.1.3,MacIntel,60,,,,,,,,,,,,,,,,,,,,,,,,,,,,,,,,,,,,,,,,,,,,,,,,,,,,,,,,,,,,,,,,,,,,,,,,,,,,,,,,,,,,
,,,,,,,,,Hiba Zouity,2035,2021-04-13_09h05.57.874,experiment,2020.1.3,MacIntel,60,space,5.284415,0,0,0,0,1,,,,,,,,,,,,,,,,,,,,,,,,,,,,,,,,,,,,,,,,,,,,,,,,,,,,,,,,,,,,,,,,,,,,,,,,,,,,,
,,,,,,,,,Hiba Zouity,2035,2021-04-13_09h05.57.874,experiment,2020.1.3,MacIntel,60,,,,,,,,f,0.60371,0,0,0,0,1,trainingaudio/19_papipi2.wav,pngimages/19_burger.png,train1P1,pngimages/06_tent.png,-0.5,0.5,,,,,,,,,,,,,,,,,,,,,,,,,,,,,,,,,,,,,,,,,,,,,,,,,,,,,,,,,,,,,,,,
,,,,,,,,,Hiba Zouity,2035,2021-04-13_09h05.57.874,experiment,2020.1.3,MacIntel,60,,,,,,,,,,,,,,,,,,,,,0,0,0,0,1,ioaConditions/train1P1Block1.xlsx,ioaConditions/train1P1Block1Test.xlsx,,,,,,,,,,,,,,,,,,,,,,,,,,,,,,,,,,,,,,,,,,,,,,,,,,,,,,,,,
,,0,0,0,0,1,trainingaudio/23_patoko2.wav,pngimages/23_lemon.png,Hiba Zouity,2035,2021-04-13_09h05.57.874,experiment,2020.1.3,MacIntel,60,,,,,,,,,,,,,,,,,,,,,,,,,,,,,,,,,,,,,,,,,,,,,,,,,,,,,,,,,,,,,,,,,,,,,,,,,,,,,,,,,,,,
,,,,,,,,,Hiba Zouity,2035,2021-04-13_09h05.57.874,experiment,2020.1.3,MacIntel,60,,,0,0,0,0,1,,,,,,,,,,,,,,,,,,,,,,,,,,,,,,,,,,,,,,,,,,,,,,,,,,,,,,,,,,,,,,,,,,,,,,,,,,,,,
,,,,,,,,,Hiba Zouity,2035,2021-04-13_09h05.57.874,experiment,2020.1.3,MacIntel,60,,,,,,,,j,0.881045,0,0,0,0,1,trainingaudio/23_patoko2.wav,pngimages/23_lemon.png,train1P1,pngimages/22_egg.png,0.5,-0.5,,,,,,,,,,,,,,,,,,,,,,,,,,,,,,,,,,,,,,,,,,,,,,,,,,,,,,,,,,,,,,,,
,,,,,,,,,Hiba Zouity,2035,2021-04-13_09h05.57.874,experiment,2020.1.3,MacIntel,60,,,,,,,,,,,,,,,,,,,,,0,1,1,1,1,ioaConditions/train1P1Block2.xlsx,ioaConditions/train1P1Block2Test.xlsx,,,,,,,,,,,,,,,,,,,,,,,,,,,,,,,,,,,,,,,,,,,,,,,,,,,,,,,,,
,,0,0,0,0,1,trainingaudio/25_tapapi3.wav,pngimages/25_apple.png,Hiba Zouity,2035,2021-04-13_09h05.57.874,experiment,2020.1.3,MacIntel,60,,,,,,,,,,,,,,,,,,,,,,,,,,,,,,,,,,,,,,,,,,,,,,,,,,,,,,,,,,,,,,,,,,,,,,,,,,,,,,,,,,,,
,,,,,,,,,Hiba Zouity,2035,2021-04-13_09h05.57.874,experiment,2020.1.3,MacIntel,60,,,0,0,0,0,1,,,,,,,,,,,,,,,,,,,,,,,,,,,,,,,,,,,,,,,,,,,,,,,,,,,,,,,,,,,,,,,,,,,,,,,,,,,,,
,,,,,,,,,Hiba Zouity,2035,2021-04-13_09h05.57.874,experiment,2020.1.3,MacIntel,60,,,,,,,,j,0.55109,0,0,0,0,1,trainingaudio/26_kapako3.wav,pngimages/26_pineapple.png,train1P1,pngimages/25_apple.png,0.5,-0.5,,,,,,,,,,,,,,,,,,,,,,,,,,,,,,,,,,,,,,,,,,,,,,,,,,,,,,,,,,,,,,,,
,,,,,,,,,Hiba Zouity,2035,2021-04-13_09h05.57.874,experiment,2020.1.3,MacIntel,60,,,,,,,,,,,,,,,,,,,,,0,2,2,2,1,ioaConditions/train1P1Block3.xlsx,ioaConditions/train1P1Block3Test.xlsx,,,,,,,,,,,,,,,,,,,,,,,,,,,,,,,,,,,,,,,,,,,,,,,,,,,,,,,,,
,,0,0,0,0,1,trainingaudio/17_kotako1.wav,pngimages/17_cracker.png,Hiba Zouity,2035,2021-04-13_09h05.57.874,experiment,2020.1.3,MacIntel,60,,,,,,,,,,,,,,,,,,,,,,,,,,,,,,,,,,,,,,,,,,,,,,,,,,,,,,,,,,,,,,,,,,,,,,,,,,,,,,,,,,,,
,,,,,,,,,Hiba Zouity,2035,2021-04-13_09h05.57.874,experiment,2020.1.3,MacIntel,60,,,0,0,0,0,1,,,,,,,,,,,,,,,,,,,,,,,,,,,,,,,,,,,,,,,,,,,,,,,,,,,,,,,,,,,,,,,,,,,,,,,,,,,,,
,,,,,,,,,Hiba Zouity,2035,2021-04-13_09h05.57.874,experiment,2020.1.3,MacIntel,60,,,,,,,,j,0.51793,0,0,0,0,1,trainingaudio/18_popata1.wav,pngimages/18_donut.png,train1P1,pngimages/17_cracker.png,0.5,-0.5,,,,,,,,,,,,,,,,,,,,,,,,,,,,,,,,,,,,,,,,,,,,,,,,,,,,,,,,,,,,,,,,
,,,,,,,,,Hiba Zouity,2035,2021-04-13_09h05.57.874,experiment,2020.1.3,MacIntel,60,,,,,,,,,,,,,,,,,,,,,0,3,3,3,1,ioaConditions/train1P1Block4.xlsx,ioaConditions/train1P1Block4Test.xlsx,,,,,,,,,,,,,,,,,,,,,,,,,,,,,,,,,,,,,,,,,,,,,,,,,,,,,,,,,
,,0,0,0,0,1,trainingaudio/09_tipata1.wav,pngimages/09_plane.png,Hiba Zouity,2035,2021-04-13_09h05.57.874,experiment,2020.1.3,MacIntel,60,,,,,,,,,,,,,,,,,,,,,,,,,,,,,,,,,,,,,,,,,,,,,,,,,,,,,,,,,,,,,,,,,,,,,,,,,,,,,,,,,,,,
,,,,,,,,,Hiba Zouity,2035,2021-04-13_09h05.57.874,experiment,2020.1.3,MacIntel,60,,,0,0,0,0,1,,,,,,,,,,,,,,,,,,,,,,,,,,,,,,,,,,,,,,,,,,,,,,,,,,,,,,,,,,,,,,,,,,,,,,,,,,,,,
,,,,,,,,,Hiba Zouity,2035,2021-04-13_09h05.57.874,experiment,2020.1.3,MacIntel,60,,,,,,,,j,1.83015,0,0,0,0,1,trainingaudio/24_takopa2.wav,pngimages/24_banana.png,train1P1,pngimages/09_plane.png,0.5,-0.5,,,,,,,,,,,,,,,,,,,,,,,,,,,,,,,,,,,,,,,,,,,,,,,,,,,,,,,,,,,,,,,,
,,,,,,,,,Hiba Zouity,2035,2021-04-13_09h05.57.874,experiment,2020.1.3,MacIntel,60,,,,,,,,,,,,,,,,,,,,,0,4,4,4,1,ioaConditions/train1P1Block5.xlsx,ioaConditions/train1P1Block5Test.xlsx,,,,,,,,,,,,,,,,,,,,,,,,,,,,,,,,,,,,,,,,,,,,,,,,,,,,,,,,,
,,0,0,0,0,1,trainingaudio/08_tipako1.wav,pngimages/08_bell.png,Hiba Zouity,2035,2021-04-13_09h05.57.874,experiment,2020.1.3,MacIntel,60,,,,,,,,,,,,,,,,,,,,,,,,,,,,,,,,,,,,,,,,,,,,,,,,,,,,,,,,,,,,,,,,,,,,,,,,,,,,,,,,,,,,
,,,,,,,,,Hiba Zouity,2035,2021-04-13_09h05.57.874,experiment,2020.1.3,MacIntel,60,,,0,0,0,0,1,,,,,,,,,,,,,,,,,,,,,,,,,,,,,,,,,,,,,,,,,,,,,,,,,,,,,,,,,,,,,,,,,,,,,,,,,,,,,
,,,,,,,,,Hiba Zouity,2035,2021-04-13_09h05.57.874,experiment,2020.1.3,MacIntel,60,,,,,,,,f,0.997465,0,0,0,0,1,trainingaudio/08_tipako1.wav,pngimages/08_bell.png,train1P1,pngimages/03_box.png,-0.5,0.5,,,,,,,,,,,,,,,,,,,,,,,,,,,,,,,,,,,,,,,,,,,,,,,,,,,,,,,,,,,,,,,,
,,,,,,,,,Hiba Zouity,2035,2021-04-13_09h05.57.874,experiment,2020.1.3,MacIntel,60,,,,,,,,,,,,,,,,,,,,,0,5,5,5,1,ioaConditions/train1P1Block6.xlsx,ioaConditions/train1P1Block6Test.xlsx,,,,,,,,,,,,,,,,,,,,,,,,,,,,,,,,,,,,,,,,,,,,,,,,,,,,,,,,,
,,0,0,0,0,1,trainingaudio/10_tokiti2.wav,pngimages/10_backpack.png,Hiba Zouity,2035,2021-04-13_09h05.57.874,experiment,2020.1.3,MacIntel,60,,,,,,,,,,,,,,,,,,,,,,,,,,,,,,,,,,,,,,,,,,,,,,,,,,,,,,,,,,,,,,,,,,,,,,,,,,,,,,,,,,,,
,,,,,,,,,Hiba Zouity,2035,2021-04-13_09h05.57.874,experiment,2020.1.3,MacIntel,60,,,0,0,0,0,1,,,,,,,,,,,,,,,,,,,,,,,,,,,,,,,,,,,,,,,,,,,,,,,,,,,,,,,,,,,,,,,,,,,,,,,,,,,,,
,,,,,,,,,Hiba Zouity,2035,2021-04-13_09h05.57.874,experiment,2020.1.3,MacIntel,60,,,,,,,,j,4.484085,0,0,0,0,1,trainingaudio/13_kopopi3.wav,pngimages/13_toast.png,train1P1,pngimages/10_backpack.png,0.5,-0.5,,,,,,,,,,,,,,,,,,,,,,,,,,,,,,,,,,,,,,,,,,,,,,,,,,,,,,,,,,,,,,,,
,,,,,,,,,Hiba Zouity,2035,2021-04-13_09h05.57.874,experiment,2020.1.3,MacIntel,60,,,,,,,,,,,,,,,,,,,,,0,6,6,6,1,ioaConditions/train1P1Block7.xlsx,ioaConditions/train1P1Block7Test.xlsx,,,,,,,,,,,,,,,,,,,,,,,,,,,,,,,,,,,,,,,,,,,,,,,,,,,,,,,,,
,,0,0,0,0,1,trainingaudio/04_kitoti1.wav,pngimages/04_ladder.png,Hiba Zouity,2035,2021-04-13_09h05.57.874,experiment,2020.1.3,MacIntel,60,,,,,,,,,,,,,,,,,,,,,,,,,,,,,,,,,,,,,,,,,,,,,,,,,,,,,,,,,,,,,,,,,,,,,,,,,,,,,,,,,,,,
,,,,,,,,,Hiba Zouity,2035,2021-04-13_09h05.57.874,experiment,2020.1.3,MacIntel,60,,,0,0,0,0,1,,,,,,,,,,,,,,,,,,,,,,,,,,,,,,,,,,,,,,,,,,,,,,,,,,,,,,,,,,,,,,,,,,,,,,,,,,,,,
,,,,,,,,,Hiba Zouity,2035,2021-04-13_09h05.57.874,experiment,2020.1.3,MacIntel,60,,,,,,,,j,0.73892,0,0,0,0,1,trainingaudio/12_pokika2.wav,pngimages/12_pie.png,train1P1,pngimages/04_ladder.png,-0.5,0.5,,,,,,,,,,,,,,,,,,,,,,,,,,,,,,,,,,,,,,,,,,,,,,,,,,,,,,,,,,,,,,,,
,,,,,,,,,Hiba Zouity,2035,2021-04-13_09h05.57.874,experiment,2020.1.3,MacIntel,60,,,,,,,,,,,,,,,,,,,,,0,7,7,7,1,ioaConditions/train1P1Block8.xlsx,ioaConditions/train1P1Block8Test.xlsx,,,,,,,,,,,,,,,,,,,,,,,,,,,,,,,,,,,,,,,,,,,,,,,,,,,,,,,,,
,,0,0,0,0,1,trainingaudio/07_pitapi1.wav,pngimages/07_suitcase.png,Hiba Zouity,2035,2021-04-13_09h05.57.874,experiment,2020.1.3,MacIntel,60,,,,,,,,,,,,,,,,,,,,,,,,,,,,,,,,,,,,,,,,,,,,,,,,,,,,,,,,,,,,,,,,,,,,,,,,,,,,,,,,,,,,
,,,,,,,,,Hiba Zouity,2035,2021-04-13_09h05.57.874,experiment,2020.1.3,MacIntel,60,,,0,0,0,0,1,,,,,,,,,,,,,,,,,,,,,,,,,,,,,,,,,,,,,,,,,,,,,,,,,,,,,,,,,,,,,,,,,,,,,,,,,,,,,
,,,,,,,,,Hiba Zouity,2035,2021-04-13_09h05.57.874,experiment,2020.1.3,MacIntel,60,,,,,,,,f,0.401555,0,0,0,0,1,trainingaudio/02_pitito1.wav,pngimages/02_pallet.png,train1P1,pngimages/07_suitcase.png,-0.5,0.5,,,,,,,,,,,,,,,,,,,,,,,,,,,,,,,,,,,,,,,,,,,,,,,,,,,,,,,,,,,,,,,,
,,,,,,,,,Hiba Zouity,2035,2021-04-13_09h05.57.874,experiment,2020.1.3,MacIntel,60,,,,,,,,,,,,,,,,,,,,,0,8,8,8,1,ioaConditions/train1P1Block9.xlsx,ioaConditions/train1P1Block9Test.xlsx,,,,,,,,,,,,,,,,,,,,,,,,,,,,,,,,,,,,,,,,,,,,,,,,,,,,,,,,,
,,0,0,0,0,1,trainingaudio/01_kitipi1.wav,pngimages/01_gift.png,Hiba Zouity,2035,2021-04-13_09h05.57.874,experiment,2020.1.3,MacIntel,60,,,,,,,,,,,,,,,,,,,,,,,,,,,,,,,,,,,,,,,,,,,,,,,,,,,,,,,,,,,,,,,,,,,,,,,,,,,,,,,,,,,,
,,,,,,,,,Hiba Zouity,2035,2021-04-13_09h05.57.874,experiment,2020.1.3,MacIntel,60,,,0,0,0,0,1,,,,,,,,,,,,,,,,,,,,,,,,,,,,,,,,,,,,,,,,,,,,,,,,,,,,,,,,,,,,,,,,,,,,,,,,,,,,,
,,,,,,,,,Hiba Zouity,2035,2021-04-13_09h05.57.874,experiment,2020.1.3,MacIntel,60,,,,,,,,f,0.31815,0,0,0,0,1,trainingaudio/01_kitipi1.wav,pngimages/01_gift.png,train1P1,pngimages/21_cheese.png,-0.5,0.5,,,,,,,,,,,,,,,,,,,,,,,,,,,,,,,,,,,,,,,,,,,,,,,,,,,,,,,,,,,,,,,,
,,,,,,,,,Hiba Zouity,2035,2021-04-13_09h05.57.874,experiment,2020.1.3,MacIntel,60,,,,,,,,,,,,,,,,,,,,,0,9,9,9,1,ioaConditions/train1P1Block10.xlsx,ioaConditions/train1P1Block10Test.xlsx,,,,,,,,,,,,,,,,,,,,,,,,,,,,,,,,,,,,,,,,,,,,,,,,,,,,,,,,,
,,0,0,0,0,1,trainingaudio/27_pakapa1.wav,pngimages/27_kiwi.png,Hiba Zouity,2035,2021-04-13_09h05.57.874,experiment,2020.1.3,MacIntel,60,,,,,,,,,,,,,,,,,,,,,,,,,,,,,,,,,,,,,,,,,,,,,,,,,,,,,,,,,,,,,,,,,,,,,,,,,,,,,,,,,,,,
,,,,,,,,,Hiba Zouity,2035,2021-04-13_09h05.57.874,experiment,2020.1.3,MacIntel,60,,,0,0,0,0,1,,,,,,,,,,,,,,,,,,,,,,,,,,,,,,,,,,,,,,,,,,,,,,,,,,,,,,,,,,,,,,,,,,,,,,,,,,,,,
,,,,,,,,,Hiba Zouity,2035,2021-04-13_09h05.57.874,experiment,2020.1.3,MacIntel,60,,,,,,,,j,0.55806,0,0,0,0,1,trainingaudio/27_pakapa1.wav,pngimages/27_kiwi.png,train1P1,pngimages/15_barrel.png,0.5,-0.5,,,,,,,,,,,,,,,,,,,,,,,,,,,,,,,,,,,,,,,,,,,,,,,,,,,,,,,,,,,,,,,,
,,,,,,,,,Hiba Zouity,2035,2021-04-13_09h05.57.874,experiment,2020.1.3,MacIntel,60,,,,,,,,,,,,,,,,,,,,,0,10,10,10,1,ioaConditions/train1P1Block11.xlsx,ioaConditions/train1P1Block11Test.xlsx,,,,,,,,,,,,,,,,,,,,,,,,,,,,,,,,,,,,,,,,,,,,,,,,,,,,,,,,,
,,0,0,0,0,1,trainingaudio/05_titopo1.wav,pngimages/05_megaphone.png,Hiba Zouity,2035,2021-04-13_09h05.57.874,experiment,2020.1.3,MacIntel,60,,,,,,,,,,,,,,,,,,,,,,,,,,,,,,,,,,,,,,,,,,,,,,,,,,,,,,,,,,,,,,,,,,,,,,,,,,,,,,,,,,,,
,,,,,,,,,Hiba Zouity,2035,2021-04-13_09h05.57.874,experiment,2020.1.3,MacIntel,60,,,0,0,0,0,1,,,,,,,,,,,,,,,,,,,,,,,,,,,,,,,,,,,,,,,,,,,,,,,,,,,,,,,,,,,,,,,,,,,,,,,,,,,,,
,,,,,,,,,Hiba Zouity,2035,2021-04-13_09h05.57.874,experiment,2020.1.3,MacIntel,60,,,,,,,,j,0.084625,0,0,0,0,1,trainingaudio/16_kokapi3.wav,pngimages/16_icecream.png,train1P1,pngimages/05_megaphone.png,0.5,-0.5,,,,,,,,,,,,,,,,,,,,,,,,,,,,,,,,,,,,,,,,,,,,,,,,,,,,,,,,,,,,,,,,
,,,,,,,,,Hiba Zouity,2035,2021-04-13_09h05.57.874,experiment,2020.1.3,MacIntel,60,,,,,,,,,,,,,,,,,,,,,0,11,11,11,1,ioaConditions/train1P1Block12.xlsx,ioaConditions/train1P1Block12Test.xlsx,,,,,,,,,,,,,,,,,,,,,,,,,,,,,,,,,,,,,,,,,,,,,,,,,,,,,,,,,
,,0,0,0,0,1,trainingaudio/11_tokiko2.wav,pngimages/11_compass.png,Hiba Zouity,2035,2021-04-13_09h05.57.874,experiment,2020.1.3,MacIntel,60,,,,,,,,,,,,,,,,,,,,,,,,,,,,,,,,,,,,,,,,,,,,,,,,,,,,,,,,,,,,,,,,,,,,,,,,,,,,,,,,,,,,
,,,,,,,,,Hiba Zouity,2035,2021-04-13_09h05.57.874,experiment,2020.1.3,MacIntel,60,,,0,0,0,0,1,,,,,,,,,,,,,,,,,,,,,,,,,,,,,,,,,,,,,,,,,,,,,,,,,,,,,,,,,,,,,,,,,,,,,,,,,,,,,
,,,,,,,,,Hiba Zouity,2035,2021-04-13_09h05.57.874,experiment,2020.1.3,MacIntel,60,,,,,,,,j,1.40616,0,0,0,0,1,trainingaudio/20_tatito2.wav,pngimages/20_pizza.png,train1P1,pngimages/11_compass.png,0.5,-0.5,,,,,,,,,,,,,,,,,,,,,,,,,,,,,,,,,,,,,,,,,,,,,,,,,,,,,,,,,,,,,,,,
,,,,,,,,,Hiba Zouity,2035,2021-04-13_09h05.57.874,experiment,2020.1.3,MacIntel,60,,,,,,,,,,,,,,,,,,,,,0,12,12,12,1,ioaConditions/train1P1Block13.xlsx,ioaConditions/train1P1Block13Test.xlsx,,,,,,,,,,,,,,,,,,,,,,,,,,,,,,,,,,,,,,,,,,,,,,,,,,,,,,,,,
,,0,0,0,0,1,trainingaudio/14_pokoto1.wav,pngimages/14_coffee.png,Hiba Zouity,2035,2021-04-13_09h05.57.874,experiment,2020.1.3,MacIntel,60,,,,,,,,,,,,,,,,,,,,,,,,,,,,,,,,,,,,,,,,,,,,,,,,,,,,,,,,,,,,,,,,,,,,,,,,,,,,,,,,,,,,
,,,,,,,,,Hiba Zouity,2035,2021-04-13_09h05.57.874,experiment,2020.1.3,MacIntel,60,,,0,0,0,0,1,,,,,,,,,,,,,,,,,,,,,,,,,,,,,,,,,,,,,,,,,,,,,,,,,,,,,,,,,,,,,,,,,,,,,,,,,,,,,
,,,,,,,,,Hiba Zouity,2035,2021-04-13_09h05.57.874,experiment,2020.1.3,MacIntel,60,,,,,,,,j,0.33522,0,0,0,0,1,trainingaudio/14_pokoto1.wav,pngimages/14_coffee.png,train1P1,pngimages/94_house.png,0.5,-0.5,,,,,,,,,,,,,,,,,,,,,,,,,,,,,,,,,,,,,,,,,,,,,,,,,,,,,,,,,,,,,,,,
,,,,,,,,,Hiba Zouity,2035,2021-04-13_09h05.57.874,experiment,2020.1.3,MacIntel,60,,,,,,,,,,,,,,,,,,,,,,,,,,,,0,0,0,0,1,ioaConditions/train1P1LoopCondition.xlsx,two,,,,,,,,,,,,,,,,,,,,,,,,,,,,,,,,,,,,,,,,,,,,,,,,,,
space,4.73252,0,0,0,0,1,trainingaudio/09_tipata1.wav,pngimages/09_plane.png,Hiba Zouity,2035,2021-04-13_09h05.57.874,experiment,2020.1.3,MacIntel,60,,,,,,,,,,,,,,,,,,,,,,,,,,,,,,,,,,,,,,,,,,,,,,,,,,,,,,,,,,,,,,,,,,,,,,,,,,,,,,,,,,,,
,,0,1,1,1,1,trainingaudio/15_kopota1.wav,pngimages/15_barrel.png,Hiba Zouity,2035,2021-04-13_09h05.57.874,experiment,2020.1.3,MacIntel,60,,,,,,,,,,,,,,,,,,,,,,,,,,,,,,,,,,,,,,,,,,,,,,,,,,,,,,,,,,,,,,,,,,,,,,,,,,,,,,,,,,,,
,,0,2,2,2,1,trainingaudio/14_pokoto1.wav,pngimages/14_coffee.png,Hiba Zouity,2035,2021-04-13_09h05.57.874,experiment,2020.1.3,MacIntel,60,,,,,,,,,,,,,,,,,,,,,,,,,,,,,,,,,,,,,,,,,,,,,,,,,,,,,,,,,,,,,,,,,,,,,,,,,,,,,,,,,,,,
,,,,,,,,,Hiba Zouity,2035,2021-04-13_09h05.57.874,experiment,2020.1.3,MacIntel,60,space,3.51699,0,0,0,0,1,,,,,,,,,,,,,,,,,,,,,,,,,,,,,,,,,,,,,,,,,,,,,,,,,,,,,,,,,,,,,,,,,,,,,,,,,,,,,
,,,,,,,,,Hiba Zouity,2035,2021-04-13_09h05.57.874,experiment,2020.1.3,MacIntel,60,,,,,,,,j,1.04994,0,0,0,0,1,trainingaudio/09_tipata1.wav,pngimages/09_plane.png,train1P2,pngimages/19_burger.png,0.5,-0.5,,,,,,,,,,,,,,,,,,,,,,,,,,,,,,,,,,,,,,,,,,,,,,,,,,,,,,,,,,,,,,,,
,,,,,,,,,Hiba Zouity,2035,2021-04-13_09h05.57.874,experiment,2020.1.3,MacIntel,60,,,,,,,,j,0.85036,0,1,1,1,1,trainingaudio/15_kopota1.wav,pngimages/15_barrel.png,train1P2,pngimages/14_coffee.png,-0.5,0.5,,,,,,,,,,,,,,,,,,,,,,,,,,,,,,,,,,,,,,,,,,,,,,,,,,,,,,,,,,,,,,,,
,,,,,,,,,Hiba Zouity,2035,2021-04-13_09h05.57.874,experiment,2020.1.3,MacIntel,60,,,,,,,,,,,,,,,,,,,,,0,0,0,0,1,ioaConditions/train1P2Block1.xlsx,ioaConditions/train1P2Block1Test.xlsx,,,,,,,,,,,,,,,,,,,,,,,,,,,,,,,,,,,,,,,,,,,,,,,,,,,,,,,,,
,,0,0,0,0,1,trainingaudio/16_kokapi3.wav,pngimages/16_icecream.png,Hiba Zouity,2035,2021-04-13_09h05.57.874,experiment,2020.1.3,MacIntel,60,,,,,,,,,,,,,,,,,,,,,,,,,,,,,,,,,,,,,,,,,,,,,,,,,,,,,,,,,,,,,,,,,,,,,,,,,,,,,,,,,,,,
,,0,1,1,1,1,trainingaudio/26_kapako3.wav,pngimages/26_pineapple.png,Hiba Zouity,2035,2021-04-13_09h05.57.874,experiment,2020.1.3,MacIntel,60,,,,,,,,,,,,,,,,,,,,,,,,,,,,,,,,,,,,,,,,,,,,,,,,,,,,,,,,,,,,,,,,,,,,,,,,,,,,,,,,,,,,
,,0,2,2,2,1,trainingaudio/17_kotako1.wav,pngimages/17_cracker.png,Hiba Zouity,2035,2021-04-13_09h05.57.874,experiment,2020.1.3,MacIntel,60,,,,,,,,,,,,,,,,,,,,,,,,,,,,,,,,,,,,,,,,,,,,,,,,,,,,,,,,,,,,,,,,,,,,,,,,,,,,,,,,,,,,
,,,,,,,,,Hiba Zouity,2035,2021-04-13_09h05.57.874,experiment,2020.1.3,MacIntel,60,,,0,0,0,0,1,,,,,,,,,,,,,,,,,,,,,,,,,,,,,,,,,,,,,,,,,,,,,,,,,,,,,,,,,,,,,,,,,,,,,,,,,,,,,
,,,,,,,,,Hiba Zouity,2035,2021-04-13_09h05.57.874,experiment,2020.1.3,MacIntel,60,,,,,,,,j,1.000435,0,0,0,0,1,trainingaudio/11_tokiko2.wav,pngimages/11_compass.png,train1P2,pngimages/26_pineapple.png,-0.5,0.5,,,,,,,,,,,,,,,,,,,,,,,,,,,,,,,,,,,,,,,,,,,,,,,,,,,,,,,,,,,,,,,,
,,,,,,,,,Hiba Zouity,2035,2021-04-13_09h05.57.874,experiment,2020.1.3,MacIntel,60,,,,,,,,f,0.46594,0,1,1,1,1,trainingaudio/17_kotako1.wav,pngimages/17_cracker.png,train1P2,pngimages/16_icecream.png,-0.5,0.5,,,,,,,,,,,,,,,,,,,,,,,,,,,,,,,,,,,,,,,,,,,,,,,,,,,,,,,,,,,,,,,,
,,,,,,,,,Hiba Zouity,2035,2021-04-13_09h05.57.874,experiment,2020.1.3,MacIntel,60,,,,,,,,,,,,,,,,,,,,,0,1,1,1,1,ioaConditions/train1P2Block2.xlsx,ioaConditions/train1P2Block2Test.xlsx,,,,,,,,,,,,,,,,,,,,,,,,,,,,,,,,,,,,,,,,,,,,,,,,,,,,,,,,,
,,0,0,0,0,1,trainingaudio/08_tipako1.wav,pngimages/08_bell.png,Hiba Zouity,2035,2021-04-13_09h05.57.874,experiment,2020.1.3,MacIntel,60,,,,,,,,,,,,,,,,,,,,,,,,,,,,,,,,,,,,,,,,,,,,,,,,,,,,,,,,,,,,,,,,,,,,,,,,,,,,,,,,,,,,
,,0,1,1,1,1,trainingaudio/07_pitapi1.wav,pngimages/07_suitcase.png,Hiba Zouity,2035,2021-04-13_09h05.57.874,experiment,2020.1.3,MacIntel,60,,,,,,,,,,,,,,,,,,,,,,,,,,,,,,,,,,,,,,,,,,,,,,,,,,,,,,,,,,,,,,,,,,,,,,,,,,,,,,,,,,,,
,,0,2,2,2,1,trainingaudio/03_kikita1.wav,pngimages/03_box.png,Hiba Zouity,2035,2021-04-13_09h05.57.874,experiment,2020.1.3,MacIntel,60,,,,,,,,,,,,,,,,,,,,,,,,,,,,,,,,,,,,,,,,,,,,,,,,,,,,,,,,,,,,,,,,,,,,,,,,,,,,,,,,,,,,
,,,,,,,,,Hiba Zouity,2035,2021-04-13_09h05.57.874,experiment,2020.1.3,MacIntel,60,,,0,0,0,0,1,,,,,,,,,,,,,,,,,,,,,,,,,,,,,,,,,,,,,,,,,,,,,,,,,,,,,,,,,,,,,,,,,,,,,,,,,,,,,
,,,,,,,,,Hiba Zouity,2035,2021-04-13_09h05.57.874,experiment,2020.1.3,MacIntel,60,,,,,,,,j,4.485645,0,0,0,0,1,trainingaudio/07_pitapi1.wav,pngimages/07_suitcase.png,train1P2,pngimages/08_bell.png,0.5,-0.5,,,,,,,,,,,,,,,,,,,,,,,,,,,,,,,,,,,,,,,,,,,,,,,,,,,,,,,,,,,,,,,,
,,,,,,,,,Hiba Zouity,2035,2021-04-13_09h05.57.874,experiment,2020.1.3,MacIntel,60,,,,,,,,j,0.735655,0,1,1,1,1,trainingaudio/03_kikita1.wav,pngimages/03_box.png,train1P2,pngimages/01_gift.png,-0.5,0.5,,,,,,,,,,,,,,,,,,,,,,,,,,,,,,,,,,,,,,,,,,,,,,,,,,,,,,,,,,,,,,,,
,,,,,,,,,Hiba Zouity,2035,2021-04-13_09h05.57.874,experiment,2020.1.3,MacIntel,60,,,,,,,,,,,,,,,,,,,,,0,2,2,2,1,ioaConditions/train1P2Block3.xlsx,ioaConditions/train1P2Block3Test.xlsx,,,,,,,,,,,,,,,,,,,,,,,,,,,,,,,,,,,,,,,,,,,,,,,,,,,,,,,,,
,,0,0,0,0,1,trainingaudio/12_pokika2.wav,pngimages/12_pie.png,Hiba Zouity,2035,2021-04-13_09h05.57.874,experiment,2020.1.3,MacIntel,60,,,,,,,,,,,,,,,,,,,,,,,,,,,,,,,,,,,,,,,,,,,,,,,,,,,,,,,,,,,,,,,,,,,,,,,,,,,,,,,,,,,,
,,0,1,1,1,1,trainingaudio/22_kakoki3.wav,pngimages/22_egg.png,Hiba Zouity,2035,2021-04-13_09h05.57.874,experiment,2020.1.3,MacIntel,60,,,,,,,,,,,,,,,,,,,,,,,,,,,,,,,,,,,,,,,,,,,,,,,,,,,,,,,,,,,,,,,,,,,,,,,,,,,,,,,,,,,,
,,0,2,2,2,1,trainingaudio/04_kitoti1.wav,pngimages/04_ladder.png,Hiba Zouity,2035,2021-04-13_09h05.57.874,experiment,2020.1.3,MacIntel,60,,,,,,,,,,,,,,,,,,,,,,,,,,,,,,,,,,,,,,,,,,,,,,,,,,,,,,,,,,,,,,,,,,,,,,,,,,,,,,,,,,,,
,,,,,,,,,Hiba Zouity,2035,2021-04-13_09h05.57.874,experiment,2020.1.3,MacIntel,60,,,0,0,0,0,1,,,,,,,,,,,,,,,,,,,,,,,,,,,,,,,,,,,,,,,,,,,,,,,,,,,,,,,,,,,,,,,,,,,,,,,,,,,,,
,,,,,,,,,Hiba Zouity,2035,2021-04-13_09h05.57.874,experiment,2020.1.3,MacIntel,60,,,,,,,,f,1.33852,0,0,0,0,1,trainingaudio/04_kitoti1.wav,pngimages/04_ladder.png,train1P2,pngimages/12_pie.png,0.5,-0.5,,,,,,,,,,,,,,,,,,,,,,,,,,,,,,,,,,,,,,,,,,,,,,,,,,,,,,,,,,,,,,,,
,,,,,,,,,Hiba Zouity,2035,2021-04-13_09h05.57.874,experiment,2020.1.3,MacIntel,60,,,,,,,,f,0.11706,0,1,1,1,1,trainingaudio/22_kakoki3.wav,pngimages/22_egg.png,train1P2,pngimages/02_pallet.png,-0.5,0.5,,,,,,,,,,,,,,,,,,,,,,,,,,,,,,,,,,,,,,,,,,,,,,,,,,,,,,,,,,,,,,,,
,,,,,,,,,Hiba Zouity,2035,2021-04-13_09h05.57.874,experiment,2020.1.3,MacIntel,60,,,,,,,,,,,,,,,,,,,,,0,3,3,3,1,ioaConditions/train1P2Block4.xlsx,ioaConditions/train1P2Block4Test.xlsx,,,,,,,,,,,,,,,,,,,,,,,,,,,,,,,,,,,,,,,,,,,,,,,,,,,,,,,,,
,,0,0,0,0,1,trainingaudio/23_patoko2.wav,pngimages/23_lemon.png,Hiba Zouity,2035,2021-04-13_09h05.57.874,experiment,2020.1.3,MacIntel,60,,,,,,,,,,,,,,,,,,,,,,,,,,,,,,,,,,,,,,,,,,,,,,,,,,,,,,,,,,,,,,,,,,,,,,,,,,,,,,,,,,,,
,,0,1,1,1,1,trainingaudio/10_tokiti2.wav,pngimages/10_backpack.png,Hiba Zouity,2035,2021-04-13_09h05.57.874,experiment,2020.1.3,MacIntel,60,,,,,,,,,,,,,,,,,,,,,,,,,,,,,,,,,,,,,,,,,,,,,,,,,,,,,,,,,,,,,,,,,,,,,,,,,,,,,,,,,,,,
,,0,2,2,2,1,trainingaudio/20_tatito2.wav,pngimages/20_pizza.png,Hiba Zouity,2035,2021-04-13_09h05.57.874,experiment,2020.1.3,MacIntel,60,,,,,,,,,,,,,,,,,,,,,,,,,,,,,,,,,,,,,,,,,,,,,,,,,,,,,,,,,,,,,,,,,,,,,,,,,,,,,,,,,,,,
,,,,,,,,,Hiba Zouity,2035,2021-04-13_09h05.57.874,experiment,2020.1.3,MacIntel,60,,,0,0,0,0,1,,,,,,,,,,,,,,,,,,,,,,,,,,,,,,,,,,,,,,,,,,,,,,,,,,,,,,,,,,,,,,,,,,,,,,,,,,,,,
,,,,,,,,,Hiba Zouity,2035,2021-04-13_09h05.57.874,experiment,2020.1.3,MacIntel,60,,,,,,,,f,5.86752,0,0,0,0,1,trainingaudio/10_tokiti2.wav,pngimages/10_backpack.png,train1P2,pngimages/23_lemon.png,0.5,-0.5,,,,,,,,,,,,,,,,,,,,,,,,,,,,,,,,,,,,,,,,,,,,,,,,,,,,,,,,,,,,,,,,
,,,,,,,,,Hiba Zouity,2035,2021-04-13_09h05.57.874,experiment,2020.1.3,MacIntel,60,,,,,,,,j,0.283765,0,1,1,1,1,trainingaudio/25_tapapi3.wav,pngimages/25_apple.png,train1P2,pngimages/20_pizza.png,-0.5,0.5,,,,,,,,,,,,,,,,,,,,,,,,,,,,,,,,,,,,,,,,,,,,,,,,,,,,,,,,,,,,,,,,
,,,,,,,,,Hiba Zouity,2035,2021-04-13_09h05.57.874,experiment,2020.1.3,MacIntel,60,,,,,,,,,,,,,,,,,,,,,0,4,4,4,1,ioaConditions/train1P2Block5.xlsx,ioaConditions/train1P2Block5Test.xlsx,,,,,,,,,,,,,,,,,,,,,,,,,,,,,,,,,,,,,,,,,,,,,,,,,,,,,,,,,
,,0,0,0,0,1,trainingaudio/18_popata1.wav,pngimages/18_donut.png,Hiba Zouity,2035,2021-04-13_09h05.57.874,experiment,2020.1.3,MacIntel,60,,,,,,,,,,,,,,,,,,,,,,,,,,,,,,,,,,,,,,,,,,,,,,,,,,,,,,,,,,,,,,,,,,,,,,,,,,,,,,,,,,,,
,,0,1,1,1,1,trainingaudio/06_titoka1.wav,pngimages/06_tent.png,Hiba Zouity,2035,2021-04-13_09h05.57.874,experiment,2020.1.3,MacIntel,60,,,,,,,,,,,,,,,,,,,,,,,,,,,,,,,,,,,,,,,,,,,,,,,,,,,,,,,,,,,,,,,,,,,,,,,,,,,,,,,,,,,,
,,0,2,2,2,1,trainingaudio/21_papika2.wav,pngimages/21_cheese.png,Hiba Zouity,2035,2021-04-13_09h05.57.874,experiment,2020.1.3,MacIntel,60,,,,,,,,,,,,,,,,,,,,,,,,,,,,,,,,,,,,,,,,,,,,,,,,,,,,,,,,,,,,,,,,,,,,,,,,,,,,,,,,,,,,
,,,,,,,,,Hiba Zouity,2035,2021-04-13_09h05.57.874,experiment,2020.1.3,MacIntel,60,,,0,0,0,0,1,,,,,,,,,,,,,,,,,,,,,,,,,,,,,,,,,,,,,,,,,,,,,,,,,,,,,,,,,,,,,,,,,,,,,,,,,,,,,
,,,,,,,,,Hiba Zouity,2035,2021-04-13_09h05.57.874,experiment,2020.1.3,MacIntel,60,,,,,,,,j,1.784325,0,0,0,0,1,trainingaudio/21_papika2.wav,pngimages/21_cheese.png,train1P2,pngimages/18_donut.png,-0.5,0.5,,,,,,,,,,,,,,,,,,,,,,,,,,,,,,,,,,,,,,,,,,,,,,,,,,,,,,,,,,,,,,,,
,,,,,,,,,Hiba Zouity,2035,2021-04-13_09h05.57.874,experiment,2020.1.3,MacIntel,60,,,,,,,,j,0.049865,0,1,1,1,1,trainingaudio/06_titoka1.wav,pngimages/06_tent.png,train1P2,pngimages/27_kiwi.png,-0.5,0.5,,,,,,,,,,,,,,,,,,,,,,,,,,,,,,,,,,,,,,,,,,,,,,,,,,,,,,,,,,,,,,,,
,,,,,,,,,Hiba Zouity,2035,2021-04-13_09h05.57.874,experiment,2020.1.3,MacIntel,60,,,,,,,,,,,,,,,,,,,,,0,5,5,5,1,ioaConditions/train1P2Block6.xlsx,ioaConditions/train1P2Block6Test.xlsx,,,,,,,,,,,,,,,,,,,,,,,,,,,,,,,,,,,,,,,,,,,,,,,,,,,,,,,,,
,,0,0,0,0,1,trainingaudio/24_takopa2.wav,pngimages/24_banana.png,Hiba Zouity,2035,2021-04-13_09h05.57.874,experiment,2020.1.3,MacIntel,60,,,,,,,,,,,,,,,,,,,,,,,,,,,,,,,,,,,,,,,,,,,,,,,,,,,,,,,,,,,,,,,,,,,,,,,,,,,,,,,,,,,,
,,0,1,1,1,1,trainingaudio/13_kopopi3.wav,pngimages/13_toast.png,Hiba Zouity,2035,2021-04-13_09h05.57.874,experiment,2020.1.3,MacIntel,60,,,,,,,,,,,,,,,,,,,,,,,,,,,,,,,,,,,,,,,,,,,,,,,,,,,,,,,,,,,,,,,,,,,,,,,,,,,,,,,,,,,,
,,0,2,2,2,1,trainingaudio/05_titopo1.wav,pngimages/05_megaphone.png,Hiba Zouity,2035,2021-04-13_09h05.57.874,experiment,2020.1.3,MacIntel,60,,,,,,,,,,,,,,,,,,,,,,,,,,,,,,,,,,,,,,,,,,,,,,,,,,,,,,,,,,,,,,,,,,,,,,,,,,,,,,,,,,,,
,,,,,,,,,Hiba Zouity,2035,2021-04-13_09h05.57.874,experiment,2020.1.3,MacIntel,60,,,0,0,0,0,1,,,,,,,,,,,,,,,,,,,,,,,,,,,,,,,,,,,,,,,,,,,,,,,,,,,,,,,,,,,,,,,,,,,,,,,,,,,,,
,,,,,,,,,Hiba Zouity,2035,2021-04-13_09h05.57.874,experiment,2020.1.3,MacIntel,60,,,,,,,,f,3.336665,0,0,0,0,1,trainingaudio/94_kipipi1.wav,pngimages/94_house.png,train1P2,pngimages/24_banana.png,0.5,-0.5,,,,,,,,,,,,,,,,,,,,,,,,,,,,,,,,,,,,,,,,,,,,,,,,,,,,,,,,,,,,,,,,
,,,,,,,,,Hiba Zouity,2035,2021-04-13_09h05.57.874,experiment,2020.1.3,MacIntel,60,,,,,,,,f,0.266265,0,1,1,1,1,trainingaudio/05_titopo1.wav,pngimages/05_megaphone.png,train1P2,pngimages/13_toast.png,-0.5,0.5,,,,,,,,,,,,,,,,,,,,,,,,,,,,,,,,,,,,,,,,,,,,,,,,,,,,,,,,,,,,,,,,
,,,,,,,,pngimages/04_ladder.png,Hiba Zouity,2035,2021-04-13_09h05.57.874,experiment,2020.1.3,MacIntel,60,,,,,,,,,,,,,,,,,test1,,,,,,,,,,,,,,,,,,space,8.683675,space,2.51264,f,0.75976,0,0,0,0,1,trainingaudio/04_kitoti2.wav,trainingaudio/04_kitoti1.wav,2,trainingaudio/04_kitoti1.wav,,,,,,,,,,,,,,,,,,,,,,,,,,,,,,,,,,,
,,,,,,,,pngimages/12_pie.png,Hiba Zouity,2035,2021-04-13_09h05.57.874,experiment,2020.1.3,MacIntel,60,,,,,,,,,,,,,,,,,test1,,,,,,,,,,,,,,,,,,,,,,j,1.15049,0,1,1,1,1,trainingaudio/12_pokika1.wav,trainingaudio/12_pokika2.wav,2,trainingaudio/12_pokika2.wav,,,,,,,,,,,,,,,,,,,,,,,,,,,,,,,,,,,
,,,,,,,,pngimages/02_pallet.png,Hiba Zouity,2035,2021-04-13_09h05.57.874,experiment,2020.1.3,MacIntel,60,,,,,,,,,,,,,,,,,test1,,,,,,,,,,,,,,,,,,,,,,j,0.253875,0,2,2,2,1,trainingaudio/02_pitito1.wav,trainingaudio/02_pitito2.wav,1,trainingaudio/02_pitito1.wav,,,,,,,,,,,,,,,,,,,,,,,,,,,,,,,,,,,
,,,,,,,,pngimages/20_pizza.png,Hiba Zouity,2035,2021-04-13_09h05.57.874,experiment,2020.1.3,MacIntel,60,,,,,,,,,,,,,,,,,test1,,,,,,,,,,,,,,,,,,,,,,j,0.466395,0,3,3,3,1,trainingaudio/20_tatito1.wav,trainingaudio/20_tatito2.wav,2,trainingaudio/20_tatito2.wav,,,,,,,,,,,,,,,,,,,,,,,,,,,,,,,,,,,
,,,,,,,,pngimages/24_banana.png,Hiba Zouity,2035,2021-04-13_09h05.57.874,experiment,2020.1.3,MacIntel,60,,,,,,,,,,,,,,,,,test1,,,,,,,,,,,,,,,,,,,,,,j,0.284025,0,4,4,4,1,trainingaudio/24_takopa1.wav,trainingaudio/24_takopa2.wav,2,trainingaudio/24_takopa2.wav,,,,,,,,,,,,,,,,,,,,,,,,,,,,,,,,,,,
,,,,,,,,pngimages/09_plane.png,Hiba Zouity,2035,2021-04-13_09h05.57.874,experiment,2020.1.3,MacIntel,60,,,,,,,,,,,,,,,,,test1,,,,,,,,,,,,,,,,,,,,,,j,0.35219,0,5,5,5,1,trainingaudio/09_tipata2.wav,trainingaudio/09_tipata1.wav,2,trainingaudio/09_tipata1.wav,,,,,,,,,,,,,,,,,,,,,,,,,,,,,,,,,,,
,,,,,,,,pngimages/14_coffee.png,Hiba Zouity,2035,2021-04-13_09h05.57.874,experiment,2020.1.3,MacIntel,60,,,,,,,,,,,,,,,,,test1,,,,,,,,,,,,,,,,,,,,,,f,0.76836,0,6,6,6,1,trainingaudio/14_pokoto3.wav,trainingaudio/14_pokoto1.wav,2,trainingaudio/14_pokoto1.wav,,,,,,,,,,,,,,,,,,,,,,,,,,,,,,,,,,,
,,,,,,,,pngimages/15_barrel.png,Hiba Zouity,2035,2021-04-13_09h05.57.874,experiment,2020.1.3,MacIntel,60,,,,,,,,,,,,,,,,,test1,,,,,,,,,,,,,,,,,,,,,,f,0.364345,0,7,7,7,1,trainingaudio/15_kopota1.wav,trainingaudio/15_kopota3.wav,1,trainingaudio/15_kopota1.wav,,,,,,,,,,,,,,,,,,,,,,,,,,,,,,,,,,,
,,,,,,,,pngimages/27_kiwi.png,Hiba Zouity,2035,2021-04-13_09h05.57.874,experiment,2020.1.3,MacIntel,60,,,,,,,,,,,,,,,,,test1,,,,,,,,,,,,,,,,,,,,,,j,0.296205,0,8,8,8,1,trainingaudio/27_pakapa3.wav,trainingaudio/27_pakapa1.wav,2,trainingaudio/27_pakapa1.wav,,,,,,,,,,,,,,,,,,,,,,,,,,,,,,,,,,,
,,,,,,,,pngimages/22_egg.png,Hiba Zouity,2035,2021-04-13_09h05.57.874,experiment,2020.1.3,MacIntel,60,,,,,,,,,,,,,,,,,test1,,,,,,,,,,,,,,,,,,,,,,j,0.195765,0,9,9,9,1,trainingaudio/22_kakoki3.wav,trainingaudio/22_kakoki2.wav,1,trainingaudio/22_kakoki3.wav,,,,,,,,,,,,,,,,,,,,,,,,,,,,,,,,,,,
,,,,,,,,pngimages/18_donut.png,Hiba Zouity,2035,2021-04-13_09h05.57.874,experiment,2020.1.3,MacIntel,60,,,,,,,,,,,,,,,,,test1,,,,,,,,,,,,,,,,,,,,,,f,0.037395,0,10,10,10,1,trainingaudio/18_popata1.wav,trainingaudio/18_popata3.wav,1,trainingaudio/18_popata1.wav,,,,,,,,,,,,,,,,,,,,,,,,,,,,,,,,,,,
,,,,,,,,pngimages/13_toast.png,Hiba Zouity,2035,2021-04-13_09h05.57.874,experiment,2020.1.3,MacIntel,60,,,,,,,,,,,,,,,,,test1,,,,,,,,,,,,,,,,,,,,,,j,1.330655,0,11,11,11,1,trainingaudio/13_kopopi3.wav,trainingaudio/13_kopopi1.wav,1,trainingaudio/13_kopopi3.wav,,,,,,,,,,,,,,,,,,,,,,,,,,,,,,,,,,,
,,,,,,,,pngimages/06_tent.png,Hiba Zouity,2035,2021-04-13_09h05.57.874,experiment,2020.1.3,MacIntel,60,,,,,,,,,,,,,,,,,test1,,,,,,,,,,,,,,,,,,,,,,j,0.16943,0,12,12,12,1,trainingaudio/06_titoka1.wav,trainingaudio/06_titoka2.wav,1,trainingaudio/06_titoka1.wav,,,,,,,,,,,,,,,,,,,,,,,,,,,,,,,,,,,
,,,,,,,,pngimages/11_compass.png,Hiba Zouity,2035,2021-04-13_09h05.57.874,experiment,2020.1.3,MacIntel,60,,,,,,,,,,,,,,,,,test1,,,,,,,,,,,,,,,,,,,,,,j,0.584905,0,13,13,13,1,trainingaudio/11_tokiko3.wav,trainingaudio/11_tokiko2.wav,2,trainingaudio/11_tokiko2.wav,,,,,,,,,,,,,,,,,,,,,,,,,,,,,,,,,,,
,,,,,,,,pngimages/05_megaphone.png,Hiba Zouity,2035,2021-04-13_09h05.57.874,experiment,2020.1.3,MacIntel,60,,,,,,,,,,,,,,,,,test1,,,,,,,,,,,,,,,,,,,,,,j,0.05025,0,14,14,14,1,trainingaudio/05_titopo1.wav,trainingaudio/05_titopo3.wav,1,trainingaudio/05_titopo1.wav,,,,,,,,,,,,,,,,,,,,,,,,,,,,,,,,,,,
,,,,,,,,pngimages/94_house.png,Hiba Zouity,2035,2021-04-13_09h05.57.874,experiment,2020.1.3,MacIntel,60,,,,,,,,,,,,,,,,,test1,,,,,,,,,,,,,,,,,,,,,,f,0.92992,0,15,15,15,1,trainingaudio/94_kipipi1.wav,trainingaudio/94_kipipi2.wav,1,trainingaudio/94_kipipi1.wav,,,,,,,,,,,,,,,,,,,,,,,,,,,,,,,,,,,
,,,,,,,,pngimages/07_suitcase.png,Hiba Zouity,2035,2021-04-13_09h05.57.874,experiment,2020.1.3,MacIntel,60,,,,,,,,,,,,,,,,,test1,,,,,,,,,,,,,,,,,,,,,,j,0.837595,0,16,16,16,1,trainingaudio/07_pitapi1.wav,trainingaudio/07_pitapi3.wav,1,trainingaudio/07_pitapi1.wav,,,,,,,,,,,,,,,,,,,,,,,,,,,,,,,,,,,
,,,,,,,,pngimages/25_apple.png,Hiba Zouity,2035,2021-04-13_09h05.57.874,experiment,2020.1.3,MacIntel,60,,,,,,,,,,,,,,,,,test1,,,,,,,,,,,,,,,,,,,,,,f,0.898545,0,17,17,17,1,trainingaudio/25_tapapi1.wav,trainingaudio/25_tapapi3.wav,2,trainingaudio/25_tapapi3.wav,,,,,,,,,,,,,,,,,,,,,,,,,,,,,,,,,,,
,,,,,,,,pngimages/03_box.png,Hiba Zouity,2035,2021-04-13_09h05.57.874,experiment,2020.1.3,MacIntel,60,,,,,,,,,,,,,,,,,test1,,,,,,,,,,,,,,,,,,,,,,f,2.614015,0,18,18,18,1,trainingaudio/03_kikita3.wav,trainingaudio/03_kikita1.wav,2,trainingaudio/03_kikita1.wav,,,,,,,,,,,,,,,,,,,,,,,,,,,,,,,,,,,
,,,,,,,,pngimages/01_gift.png,Hiba Zouity,2035,2021-04-13_09h05.57.874,experiment,2020.1.3,MacIntel,60,,,,,,,,,,,,,,,,,test1,,,,,,,,,,,,,,,,,,,,,,f,1.17994,0,19,19,19,1,trainingaudio/01_kitipi2.wav,trainingaudio/01_kitipi1.wav,2,trainingaudio/01_kitipi1.wav,,,,,,,,,,,,,,,,,,,,,,,,,,,,,,,,,,,
,,,,,,,,pngimages/26_pineapple.png,Hiba Zouity,2035,2021-04-13_09h05.57.874,experiment,2020.1.3,MacIntel,60,,,,,,,,,,,,,,,,,test1,,,,,,,,,,,,,,,,,,,,,,j,1.18114,0,20,20,20,1,trainingaudio/26_kapako1.wav,trainingaudio/26_kapako3.wav,2,trainingaudio/26_kapako3.wav,,,,,,,,,,,,,,,,,,,,,,,,,,,,,,,,,,,
,,,,,,,,pngimages/10_backpack.png,Hiba Zouity,2035,2021-04-13_09h05.57.874,experiment,2020.1.3,MacIntel,60,,,,,,,,,,,,,,,,,test1,,,,,,,,,,,,,,,,,,,,,,f,1.41691,0,21,21,21,1,trainingaudio/10_tokiti3.wav,trainingaudio/10_tokiti2.wav,2,trainingaudio/10_tokiti2.wav,,,,,,,,,,,,,,,,,,,,,,,,,,,,,,,,,,,
,,,,,,,,pngimages/21_cheese.png,Hiba Zouity,2035,2021-04-13_09h05.57.874,experiment,2020.1.3,MacIntel,60,,,,,,,,,,,,,,,,,test1,,,,,,,,,,,,,,,,,,,,,,f,0.30554,0,22,22,22,1,trainingaudio/21_papika2.wav,trainingaudio/21_papika3.wav,1,trainingaudio/21_papika2.wav,,,,,,,,,,,,,,,,,,,,,,,,,,,,,,,,,,,
,,,,,,,,pngimages/19_burger.png,Hiba Zouity,2035,2021-04-13_09h05.57.874,experiment,2020.1.3,MacIntel,60,,,,,,,,,,,,,,,,,test1,,,,,,,,,,,,,,,,,,,,,,j,0.58352,0,23,23,23,1,trainingaudio/19_papipi2.wav,trainingaudio/19_papipi3.wav,1,trainingaudio/19_papipi2.wav,,,,,,,,,,,,,,,,,,,,,,,,,,,,,,,,,,,
,,,,,,,,pngimages/17_cracker.png,Hiba Zouity,2035,2021-04-13_09h05.57.874,experiment,2020.1.3,MacIntel,60,,,,,,,,,,,,,,,,,test1,,,,,,,,,,,,,,,,,,,,,,f,2.16804,0,24,24,24,1,trainingaudio/17_kotako2.wav,trainingaudio/17_kotako1.wav,2,trainingaudio/17_kotako1.wav,,,,,,,,,,,,,,,,,,,,,,,,,,,,,,,,,,,
,,,,,,,,pngimages/16_icecream.png,Hiba Zouity,2035,2021-04-13_09h05.57.874,experiment,2020.1.3,MacIntel,60,,,,,,,,,,,,,,,,,test1,,,,,,,,,,,,,,,,,,,,,,j,1.15163,0,25,25,25,1,trainingaudio/16_kokapi1.wav,trainingaudio/16_kokapi3.wav,2,trainingaudio/16_kokapi3.wav,,,,,,,,,,,,,,,,,,,,,,,,,,,,,,,,,,,
,,,,,,,,pngimages/23_lemon.png,Hiba Zouity,2035,2021-04-13_09h05.57.874,experiment,2020.1.3,MacIntel,60,,,,,,,,,,,,,,,,,test1,,,,,,,,,,,,,,,,,,,,,,j,3.249425,0,26,26,26,1,trainingaudio/23_patoko1.wav,trainingaudio/23_patoko2.wav,2,trainingaudio/23_patoko2.wav,,,,,,,,,,,,,,,,,,,,,,,,,,,,,,,,,,,
,,,,,,,,pngimages/08_bell.png,Hiba Zouity,2035,2021-04-13_09h05.57.874,experiment,2020.1.3,MacIntel,60,,,,,,,,,,,,,,,,,test1,,,,,,,,,,,,,,,,,,,,,,j,1.883695,0,27,27,27,1,trainingaudio/08_tipako1.wav,trainingaudio/08_tipako3.wav,1,trainingaudio/08_tipako1.wav,,,,,,,,,,,,,,,,,,,,,,,,,,,,,,,,,,,
,,,,,,,,pngimages/27_kiwi.png,Hiba Zouity,2035,2021-04-13_09h05.57.874,experiment,2020.1.3,MacIntel,60,,,,,,,,,,,,,,,,,test1,,,,,,,,,,,,,,,,,,,,,,j,0.05144,0,28,28,28,1,trainingaudio/27_pakapa2.wav,trainingaudio/27_pakapa1.wav,2,trainingaudio/27_pakapa1.wav,,,,,,,,,,,,,,,,,,,,,,,,,,,,,,,,,,,
,,,,,,,,pngimages/20_pizza.png,Hiba Zouity,2035,2021-04-13_09h05.57.874,experiment,2020.1.3,MacIntel,60,,,,,,,,,,,,,,,,,test1,,,,,,,,,,,,,,,,,,,,,,j,0.05319,0,29,29,29,1,trainingaudio/20_tatito3.wav,trainingaudio/20_tatito2.wav,2,trainingaudio/20_tatito2.wav,,,,,,,,,,,,,,,,,,,,,,,,,,,,,,,,,,,
,,,,,,,,pngimages/12_pie.png,Hiba Zouity,2035,2021-04-13_09h05.57.874,experiment,2020.1.3,MacIntel,60,,,,,,,,,,,,,,,,,test1,,,,,,,,,,,,,,,,,,,,,,f,0.967115,0,30,30,30,1,trainingaudio/12_pokika2.wav,trainingaudio/12_pokika1.wav,1,trainingaudio/12_pokika2.wav,,,,,,,,,,,,,,,,,,,,,,,,,,,,,,,,,,,
,,,,,,,,pngimages/01_gift.png,Hiba Zouity,2035,2021-04-13_09h05.57.874,experiment,2020.1.3,MacIntel,60,,,,,,,,,,,,,,,,,test1,,,,,,,,,,,,,,,,,,,,,,j,3.766235,0,31,31,31,1,trainingaudio/01_kitipi3.wav,trainingaudio/01_kitipi1.wav,2,trainingaudio/01_kitipi1.wav,,,,,,,,,,,,,,,,,,,,,,,,,,,,,,,,,,,
,,,,,,,,pngimages/09_plane.png,Hiba Zouity,2035,2021-04-13_09h05.57.874,experiment,2020.1.3,MacIntel,60,,,,,,,,,,,,,,,,,test1,,,,,,,,,,,,,,,,,,,,,,j,3.402025,0,32,32,32,1,trainingaudio/09_tipata3.wav,trainingaudio/09_tipata1.wav,2,trainingaudio/09_tipata1.wav,,,,,,,,,,,,,,,,,,,,,,,,,,,,,,,,,,,
,,,,,,,,pngimages/25_apple.png,Hiba Zouity,2035,2021-04-13_09h05.57.874,experiment,2020.1.3,MacIntel,60,,,,,,,,,,,,,,,,,test1,,,,,,,,,,,,,,,,,,,,,,j,1.78005,0,33,33,33,1,trainingaudio/25_tapapi2.wav,trainingaudio/25_tapapi3.wav,2,trainingaudio/25_tapapi3.wav,,,,,,,,,,,,,,,,,,,,,,,,,,,,,,,,,,,
,,,,,,,,pngimages/02_pallet.png,Hiba Zouity,2035,2021-04-13_09h05.57.874,experiment,2020.1.3,MacIntel,60,,,,,,,,,,,,,,,,,test1,,,,,,,,,,,,,,,,,,,,,,f,8.198785,0,34,34,34,1,trainingaudio/02_pitito1.wav,trainingaudio/02_pitito3.wav,1,trainingaudio/02_pitito1.wav,,,,,,,,,,,,,,,,,,,,,,,,,,,,,,,,,,,
,,,,,,,,pngimages/08_bell.png,Hiba Zouity,2035,2021-04-13_09h05.57.874,experiment,2020.1.3,MacIntel,60,,,,,,,,,,,,,,,,,test1,,,,,,,,,,,,,,,,,,,,,,j,0.31309,0,35,35,35,1,trainingaudio/08_tipako1.wav,trainingaudio/08_tipako2.wav,1,trainingaudio/08_tipako1.wav,,,,,,,,,,,,,,,,,,,,,,,,,,,,,,,,,,,
,,,,,,,,pngimages/15_barrel.png,Hiba Zouity,2035,2021-04-13_09h05.57.874,experiment,2020.1.3,MacIntel,60,,,,,,,,,,,,,,,,,test1,,,,,,,,,,,,,,,,,,,,,,j,0.264,0,36,36,36,1,trainingaudio/15_kopota2.wav,trainingaudio/15_kopota1.wav,2,trainingaudio/15_kopota1.wav,,,,,,,,,,,,,,,,,,,,,,,,,,,,,,,,,,,
,,,,,,,,pngimages/24_banana.png,Hiba Zouity,2035,2021-04-13_09h05.57.874,experiment,2020.1.3,MacIntel,60,,,,,,,,,,,,,,,,,test1,,,,,,,,,,,,,,,,,,,,,,j,0.51874,0,37,37,37,1,trainingaudio/24_takopa3.wav,trainingaudio/24_takopa2.wav,2,trainingaudio/24_takopa2.wav,,,,,,,,,,,,,,,,,,,,,,,,,,,,,,,,,,,
,,,,,,,,pngimages/06_tent.png,Hiba Zouity,2035,2021-04-13_09h05.57.874,experiment,2020.1.3,MacIntel,60,,,,,,,,,,,,,,,,,test1,,,,,,,,,,,,,,,,,,,,,,j,0.285455,0,38,38,38,1,trainingaudio/06_titoka3.wav,trainingaudio/06_titoka1.wav,2,trainingaudio/06_titoka1.wav,,,,,,,,,,,,,,,,,,,,,,,,,,,,,,,,,,,
,,,,,,,,pngimages/16_icecream.png,Hiba Zouity,2035,2021-04-13_09h05.57.874,experiment,2020.1.3,MacIntel,60,,,,,,,,,,,,,,,,,test1,,,,,,,,,,,,,,,,,,,,,,f,2.546825,0,39,39,39,1,trainingaudio/16_kokapi3.wav,trainingaudio/16_kokapi2.wav,1,trainingaudio/16_kokapi3.wav,,,,,,,,,,,,,,,,,,,,,,,,,,,,,,,,,,,
,,,,,,,,pngimages/04_ladder.png,Hiba Zouity,2035,2021-04-13_09h05.57.874,experiment,2020.1.3,MacIntel,60,,,,,,,,,,,,,,,,,test1,,,,,,,,,,,,,,,,,,,,,,j,1.047815,0,40,40,40,1,trainingaudio/04_kitoti2.wav,trainingaudio/04_kitoti1.wav,2,trainingaudio/04_kitoti1.wav,,,,,,,,,,,,,,,,,,,,,,,,,,,,,,,,,,,
,,,,,,,,pngimages/22_egg.png,Hiba Zouity,2035,2021-04-13_09h05.57.874,experiment,2020.1.3,MacIntel,60,,,,,,,,,,,,,,,,,test1,,,,,,,,,,,,,,,,,,,,,,j,0.6491,0,41,41,41,1,trainingaudio/22_kakoki1.wav,trainingaudio/22_kakoki3.wav,2,trainingaudio/22_kakoki3.wav,,,,,,,,,,,,,,,,,,,,,,,,,,,,,,,,,,,
,,,,,,,,pngimages/17_cracker.png,Hiba Zouity,2035,2021-04-13_09h05.57.874,experiment,2020.1.3,MacIntel,60,,,,,,,,,,,,,,,,,test1,,,,,,,,,,,,,,,,,,,,,,j,2.155195,0,42,42,42,1,trainingaudio/17_kotako1.wav,trainingaudio/17_kotako3.wav,1,trainingaudio/17_kotako1.wav,,,,,,,,,,,,,,,,,,,,,,,,,,,,,,,,,,,
,,,,,,,,pngimages/13_toast.png,Hiba Zouity,2035,2021-04-13_09h05.57.874,experiment,2020.1.3,MacIntel,60,,,,,,,,,,,,,,,,,test1,,,,,,,,,,,,,,,,,,,,,,f,2.3857,0,43,43,43,1,trainingaudio/13_kopopi2.wav,trainingaudio/13_kopopi3.wav,2,trainingaudio/13_kopopi3.wav,,,,,,,,,,,,,,,,,,,,,,,,,,,,,,,,,,,
,,,,,,,,pngimages/94_house.png,Hiba Zouity,2035,2021-04-13_09h05.57.874,experiment,2020.1.3,MacIntel,60,,,,,,,,,,,,,,,,,test1,,,,,,,,,,,,,,,,,,,,,,j,3.167045,0,44,44,44,1,trainingaudio/94_kipipi2.wav,trainingaudio/94_kipipi1.wav,2,trainingaudio/94_kipipi1.wav,,,,,,,,,,,,,,,,,,,,,,,,,,,,,,,,,,,
,,,,,,,,pngimages/07_suitcase.png,Hiba Zouity,2035,2021-04-13_09h05.57.874,experiment,2020.1.3,MacIntel,60,,,,,,,,,,,,,,,,,test1,,,,,,,,,,,,,,,,,,,,,,j,1.600935,0,45,45,45,1,trainingaudio/07_pitapi1.wav,trainingaudio/07_pitapi3.wav,1,trainingaudio/07_pitapi1.wav,,,,,,,,,,,,,,,,,,,,,,,,,,,,,,,,,,,
,,,,,,,,pngimages/10_backpack.png,Hiba Zouity,2035,2021-04-13_09h05.57.874,experiment,2020.1.3,MacIntel,60,,,,,,,,,,,,,,,,,test1,,,,,,,,,,,,,,,,,,,,,,j,2.882775,0,46,46,46,1,trainingaudio/10_tokiti3.wav,trainingaudio/10_tokiti2.wav,2,trainingaudio/10_tokiti2.wav,,,,,,,,,,,,,,,,,,,,,,,,,,,,,,,,,,,
,,,,,,,,pngimages/19_burger.png,Hiba Zouity,2035,2021-04-13_09h05.57.874,experiment,2020.1.3,MacIntel,60,,,,,,,,,,,,,,,,,test1,,,,,,,,,,,,,,,,,,,,,,j,1.517125,0,47,47,47,1,trainingaudio/19_papipi3.wav,trainingaudio/19_papipi2.wav,2,trainingaudio/19_papipi2.wav,,,,,,,,,,,,,,,,,,,,,,,,,,,,,,,,,,,
,,,,,,,,pngimages/18_donut.png,Hiba Zouity,2035,2021-04-13_09h05.57.874,experiment,2020.1.3,MacIntel,60,,,,,,,,,,,,,,,,,test1,,,,,,,,,,,,,,,,,,,,,,j,0.46714,0,48,48,48,1,trainingaudio/18_popata1.wav,trainingaudio/18_popata3.wav,1,trainingaudio/18_popata1.wav,,,,,,,,,,,,,,,,,,,,,,,,,,,,,,,,,,,
,,,,,,,,pngimages/11_compass.png,Hiba Zouity,2035,2021-04-13_09h05.57.874,experiment,2020.1.3,MacIntel,60,,,,,,,,,,,,,,,,,test1,,,,,,,,,,,,,,,,,,,,,,j,3.200485,0,49,49,49,1,trainingaudio/11_tokiko2.wav,trainingaudio/11_tokiko1.wav,1,trainingaudio/11_tokiko2.wav,,,,,,,,,,,,,,,,,,,,,,,,,,,,,,,,,,,
,,,,,,,,pngimages/21_cheese.png,Hiba Zouity,2035,2021-04-13_09h05.57.874,experiment,2020.1.3,MacIntel,60,,,,,,,,,,,,,,,,,test1,,,,,,,,,,,,,,,,,,,,,,j,2.735825,0,50,50,50,1,trainingaudio/21_papika2.wav,trainingaudio/21_papika3.wav,1,trainingaudio/21_papika2.wav,,,,,,,,,,,,,,,,,,,,,,,,,,,,,,,,,,,
,,,,,,,,pngimages/05_megaphone.png,Hiba Zouity,2035,2021-04-13_09h05.57.874,experiment,2020.1.3,MacIntel,60,,,,,,,,,,,,,,,,,test1,,,,,,,,,,,,,,,,,,,,,,j,0.49904,0,51,51,51,1,trainingaudio/05_titopo1.wav,trainingaudio/05_titopo3.wav,1,trainingaudio/05_titopo1.wav,,,,,,,,,,,,,,,,,,,,,,,,,,,,,,,,,,,
,,,,,,,,pngimages/26_pineapple.png,Hiba Zouity,2035,2021-04-13_09h05.57.874,experiment,2020.1.3,MacIntel,60,,,,,,,,,,,,,,,,,test1,,,,,,,,,,,,,,,,,,,,,,f,2.95066,0,52,52,52,1,trainingaudio/26_kapako3.wav,trainingaudio/26_kapako1.wav,1,trainingaudio/26_kapako3.wav,,,,,,,,,,,,,,,,,,,,,,,,,,,,,,,,,,,
,,,,,,,,pngimages/23_lemon.png,Hiba Zouity,2035,2021-04-13_09h05.57.874,experiment,2020.1.3,MacIntel,60,,,,,,,,,,,,,,,,,test1,,,,,,,,,,,,,,,,,,,,,,f,2.302175,0,53,53,53,1,trainingaudio/23_patoko2.wav,trainingaudio/23_patoko3.wav,1,trainingaudio/23_patoko2.wav,,,,,,,,,,,,,,,,,,,,,,,,,,,,,,,,,,,
,,,,,,,,pngimages/14_coffee.png,Hiba Zouity,2035,2021-04-13_09h05.57.874,experiment,2020.1.3,MacIntel,60,,,,,,,,,,,,,,,,,test1,,,,,,,,,,,,,,,,,,,,,,f,1.3674,0,54,54,54,1,trainingaudio/14_pokoto2.wav,trainingaudio/14_pokoto1.wav,2,trainingaudio/14_pokoto1.wav,,,,,,,,,,,,,,,,,,,,,,,,,,,,,,,,,,,
,,,,,,,,pngimages/03_box.png,Hiba Zouity,2035,2021-04-13_09h05.57.874,experiment,2020.1.3,MacIntel,60,,,,,,,,,,,,,,,,,test1,,,,,,,,,,,,,,,,,,,,,,f,3.169105,0,55,55,55,1,trainingaudio/03_kikita1.wav,trainingaudio/03_kikita2.wav,1,trainingaudio/03_kikita1.wav,,,,,,,,,,,,,,,,,,,,,,,,,,,,,,,,,,,
,,,,,,,,pngimages/67_laptop.png,Hiba Zouity,2035,2021-04-13_09h05.57.874,experiment,2020.1.3,MacIntel,60,,,,,,,,,,,,,,,,,test2,,,,,,,,,,,,,,,,,,,,,,,,,,,,,novelaudio/67_tokoki3.wav,novelaudio/67_tokoki1.wav,1,,f,4.84888,f,4.409325,f,0.36169,0,0,0,0,1,,,,,,,,,,,,,,,,,,,,,,,,
,,,,,,,,pngimages/49_calculator.png,Hiba Zouity,2035,2021-04-13_09h05.57.874,experiment,2020.1.3,MacIntel,60,,,,,,,,,,,,,,,,,test2,,,,,,,,,,,,,,,,,,,,,,,,,,,,,novelaudio/49_tatopi2.wav,novelaudio/49_tatopi3.wav,2,,,,,,f,1.26272,0,1,1,1,1,,,,,,,,,,,,,,,,,,,,,,,,
,,,,,,,,pngimages/59_umbrella.png,Hiba Zouity,2035,2021-04-13_09h05.57.874,experiment,2020.1.3,MacIntel,60,,,,,,,,,,,,,,,,,test2,,,,,,,,,,,,,,,,,,,,,,,,,,,,,novelaudio/59_tipoko1.wav,novelaudio/59_tipoko3.wav,1,,,,,,f,1.96684,0,2,2,2,1,,,,,,,,,,,,,,,,,,,,,,,,
,,,,,,,,pngimages/45_scissors.png,Hiba Zouity,2035,2021-04-13_09h05.57.874,experiment,2020.1.3,MacIntel,60,,,,,,,,,,,,,,,,,test2,,,,,,,,,,,,,,,,,,,,,,,,,,,,,novelaudio/45_totaka1.wav,novelaudio/45_totaka2.wav,1,,,,,,f,3.56644,0,3,3,3,1,,,,,,,,,,,,,,,,,,,,,,,,
,,,,,,,,pngimages/35_skillet.png,Hiba Zouity,2035,2021-04-13_09h05.57.874,experiment,2020.1.3,MacIntel,60,,,,,,,,,,,,,,,,,test2,,,,,,,,,,,,,,,,,,,,,,,,,,,,,novelaudio/35_titato1.wav,novelaudio/35_titato2.wav,1,,,,,,f,5.68531,0,4,4,4,1,,,,,,,,,,,,,,,,,,,,,,,,
,,,,,,,,pngimages/39_fork.png,Hiba Zouity,2035,2021-04-13_09h05.57.874,experiment,2020.1.3,MacIntel,60,,,,,,,,,,,,,,,,,test2,,,,,,,,,,,,,,,,,,,,,,,,,,,,,novelaudio/39_kotipa1.wav,novelaudio/39_kotipa2.wav,2,,,,,,f,1.168075,0,5,5,5,1,,,,,,,,,,,,,,,,,,,,,,,,
,,,,,,,,pngimages/68_heart.png,Hiba Zouity,2035,2021-04-13_09h05.57.874,experiment,2020.1.3,MacIntel,60,,,,,,,,,,,,,,,,,test2,,,,,,,,,,,,,,,,,,,,,,,,,,,,,novelaudio/68_pokopo2.wav,novelaudio/68_pokopo1.wav,2,,,,,,f,3.937805,0,6,6,6,1,,,,,,,,,,,,,,,,,,,,,,,,
,,,,,,,,pngimages/74_boat.png,Hiba Zouity,2035,2021-04-13_09h05.57.874,experiment,2020.1.3,MacIntel,60,,,,,,,,,,,,,,,,,test2,,,,,,,,,,,,,,,,,,,,,,,,,,,,,novelaudio/74_tatiko2.wav,novelaudio/74_tatiko1.wav,1,,,,,,f,2.53978,0,7,7,7,1,,,,,,,,,,,,,,,,,,,,,,,,
,,,,,,,,pngimages/75_chicken.png,Hiba Zouity,2035,2021-04-13_09h05.57.874,experiment,2020.1.3,MacIntel,60,,,,,,,,,,,,,,,,,test2,,,,,,,,,,,,,,,,,,,,,,,,,,,,,novelaudio/75_kakita3.wav,novelaudio/75_kakita2.wav,2,,,,,,f,0.41904,0,8,8,8,1,,,,,,,,,,,,,,,,,,,,,,,,
,,,,,,,,pngimages/29_cherry.png,Hiba Zouity,2035,2021-04-13_09h05.57.874,experiment,2020.1.3,MacIntel,60,,,,,,,,,,,,,,,,,test2,,,,,,,,,,,,,,,,,,,,,,,,,,,,,novelaudio/29_pipito1.wav,novelaudio/29_pipito3.wav,1,,,,,,f,3.368415,0,9,9,9,1,,,,,,,,,,,,,,,,,,,,,,,,
,,,,,,,,pngimages/62_screwdriver.png,Hiba Zouity,2035,2021-04-13_09h05.57.874,experiment,2020.1.3,MacIntel,60,,,,,,,,,,,,,,,,,test2,,,,,,,,,,,,,,,,,,,,,,,,,,,,,novelaudio/62_pitako1.wav,novelaudio/62_pitako2.wav,1,,,,,,j,1.5055,0,10,10,10,1,,,,,,,,,,,,,,,,,,,,,,,,
,,,,,,,,pngimages/40_spoon.png,Hiba Zouity,2035,2021-04-13_09h05.57.874,experiment,2020.1.3,MacIntel,60,,,,,,,,,,,,,,,,,test2,,,,,,,,,,,,,,,,,,,,,,,,,,,,,novelaudio/40_kototi1.wav,novelaudio/40_kototi3.wav,2,,,,,,j,0.500945,0,11,11,11,1,,,,,,,,,,,,,,,,,,,,,,,,
,,,,,,,,pngimages/52_newspaper.png,Hiba Zouity,2035,2021-04-13_09h05.57.874,experiment,2020.1.3,MacIntel,60,,,,,,,,,,,,,,,,,test2,,,,,,,,,,,,,,,,,,,,,,,,,,,,,novelaudio/52_pakaki2.wav,novelaudio/52_pakaki3.wav,2,,,,,,j,1.184655,0,12,12,12,1,,,,,,,,,,,,,,,,,,,,,,,,
,,,,,,,,pngimages/46_paper.png,Hiba Zouity,2035,2021-04-13_09h05.57.874,experiment,2020.1.3,MacIntel,60,,,,,,,,,,,,,,,,,test2,,,,,,,,,,,,,,,,,,,,,,,,,,,,,novelaudio/46_tapiti2.wav,novelaudio/46_tapiti1.wav,1,,,,,,f,1.167665,0,13,13,13,1,,,,,,,,,,,,,,,,,,,,,,,,
,,,,,,,,pngimages/78_cow.png,Hiba Zouity,2035,2021-04-13_09h05.57.874,experiment,2020.1.3,MacIntel,60,,,,,,,,,,,,,,,,,test2,,,,,,,,,,,,,,,,,,,,,,,,,,,,,novelaudio/78_kakoka2.wav,novelaudio/78_kakoka1.wav,1,,,,,,j,1.706375,0,14,14,14,1,,,,,,,,,,,,,,,,,,,,,,,,
,,,,,,,,pngimages/37_mug.png,Hiba Zouity,2035,2021-04-13_09h05.57.874,experiment,2020.1.3,MacIntel,60,,,,,,,,,,,,,,,,,test2,,,,,,,,,,,,,,,,,,,,,,,,,,,,,novelaudio/37_kokiti2.wav,novelaudio/37_kokiti3.wav,1,,,,,,j,0.834105,0,15,15,15,1,,,,,,,,,,,,,,,,,,,,,,,,
,,,,,,,,pngimages/41_piano.png,Hiba Zouity,2035,2021-04-13_09h05.57.874,experiment,2020.1.3,MacIntel,60,,,,,,,,,,,,,,,,,test2,,,,,,,,,,,,,,,,,,,,,,,,,,,,,novelaudio/41_pototo1.wav,novelaudio/41_pototo2.wav,1,,,,,,j,4.786,0,16,16,16,1,,,,,,,,,,,,,,,,,,,,,,,,
,,,,,,,,pngimages/50_ruler.png,Hiba Zouity,2035,2021-04-13_09h05.57.874,experiment,2020.1.3,MacIntel,60,,,,,,,,,,,,,,,,,test2,,,,,,,,,,,,,,,,,,,,,,,,,,,,,novelaudio/50_katoko1.wav,novelaudio/50_katoko2.wav,2,,,,,,f,3.73374,0,17,17,17,1,,,,,,,,,,,,,,,,,,,,,,,,
,,,,,,,,pngimages/72_nose.png,Hiba Zouity,2035,2021-04-13_09h05.57.874,experiment,2020.1.3,MacIntel,60,,,,,,,,,,,,,,,,,test2,,,,,,,,,,,,,,,,,,,,,,,,,,,,,novelaudio/72_topata1.wav,novelaudio/72_topata3.wav,1,,,,,,j,3.1165,0,18,18,18,1,,,,,,,,,,,,,,,,,,,,,,,,
,,,,,,,,pngimages/64_shovel.png,Hiba Zouity,2035,2021-04-13_09h05.57.874,experiment,2020.1.3,MacIntel,60,,,,,,,,,,,,,,,,,test2,,,,,,,,,,,,,,,,,,,,,,,,,,,,,novelaudio/64_popiti3.wav,novelaudio/64_popiti2.wav,2,,,,,,j,8.388365,0,19,19,19,1,,,,,,,,,,,,,,,,,,,,,,,,
,,,,,,,,pngimages/61_key.png,Hiba Zouity,2035,2021-04-13_09h05.57.874,experiment,2020.1.3,MacIntel,60,,,,,,,,,,,,,,,,,test2,,,,,,,,,,,,,,,,,,,,,,,,,,,,,novelaudio/61_pikati1.wav,novelaudio/61_pikati2.wav,1,,,,,,f,2.981535,0,20,20,20,1,,,,,,,,,,,,,,,,,,,,,,,,
,,,,,,,,pngimages/48_brush.png,Hiba Zouity,2035,2021-04-13_09h05.57.874,experiment,2020.1.3,MacIntel,60,,,,,,,,,,,,,,,,,test2,,,,,,,,,,,,,,,,,,,,,,,,,,,,,novelaudio/48_pakipa2.wav,novelaudio/48_pakipa3.wav,1,,,,,,j,0.7708,0,21,21,21,1,,,,,,,,,,,,,,,,,,,,,,,,
,,,,,,,,pngimages/57_flashlight.png,Hiba Zouity,2035,2021-04-13_09h05.57.874,experiment,2020.1.3,MacIntel,60,,,,,,,,,,,,,,,,,test2,,,,,,,,,,,,,,,,,,,,,,,,,,,,,novelaudio/57_tipipa1.wav,novelaudio/57_tipipa2.wav,1,,,,,,j,9.167185,0,22,22,22,1,,,,,,,,,,,,,,,,,,,,,,,,
,,,,,,,,pngimages/32_greenpepper.png,Hiba Zouity,2035,2021-04-13_09h05.57.874,experiment,2020.1.3,MacIntel,60,,,,,,,,,,,,,,,,,test2,,,,,,,,,,,,,,,,,,,,,,,,,,,,,novelaudio/32_kipoto2.wav,novelaudio/32_kipoto1.wav,2,,,,,,f,2.150465,0,23,23,23,1,,,,,,,,,,,,,,,,,,,,,,,,
,,,,,,,,pngimages/54_toiletpaper.png,Hiba Zouity,2035,2021-04-13_09h05.57.874,experiment,2020.1.3,MacIntel,60,,,,,,,,,,,,,,,,,test2,,,,,,,,,,,,,,,,,,,,,,,,,,,,,novelaudio/54_kapapa1.wav,novelaudio/54_kapapa2.wav,1,,,,,,f,5.346085,0,24,24,24,1,,,,,,,,,,,,,,,,,,,,,,,,
,,,,,,,,pngimages/79_pig.png,Hiba Zouity,2035,2021-04-13_09h05.57.874,experiment,2020.1.3,MacIntel,60,,,,,,,,,,,,,,,,,test2,,,,,,,,,,,,,,,,,,,,,,,,,,,,,novelaudio/79_katapi3.wav,novelaudio/79_katapi1.wav,1,,,,,,f,3.238925,0,25,25,25,1,,,,,,,,,,,,,,,,,,,,,,,,
,,,,,,,,pngimages/55_toilet.png,Hiba Zouity,2035,2021-04-13_09h05.57.874,experiment,2020.1.3,MacIntel,60,,,,,,,,,,,,,,,,,test2,,,,,,,,,,,,,,,,,,,,,,,,,,,,,novelaudio/55_pikiki3.wav,novelaudio/55_pikiki1.wav,2,,,,,,j,1.250105,0,26,26,26,1,,,,,,,,,,,,,,,,,,,,,,,,
,,,,,,,,pngimages/43_guitar.png,Hiba Zouity,2035,2021-04-13_09h05.57.874,experiment,2020.1.3,MacIntel,60,,,,,,,,,,,,,,,,,test2,,,,,,,,,,,,,,,,,,,,,,,,,,,,,novelaudio/43_potaki2.wav,novelaudio/43_potaki3.wav,2,,,,,,f,0.11597,0,27,27,27,1,,,,,,,,,,,,,,,,,,,,,,,,
,,,,,,,,pngimages/53_hammer.png,Hiba Zouity,2035,2021-04-13_09h05.57.874,experiment,2020.1.3,MacIntel,60,,,,,,,,,,,,,,,,,test2,,,,,,,,,,,,,,,,,,,,,,,,,,,,,novelaudio/53_patapo3.wav,novelaudio/53_patapo1.wav,1,,,,,,f,4.100995,0,28,28,28,1,,,,,,,,,,,,,,,,,,,,,,,,
,,,,,,,,pngimages/66_safe.png,Hiba Zouity,2035,2021-04-13_09h05.57.874,experiment,2020.1.3,MacIntel,60,,,,,,,,,,,,,,,,,test2,,,,,,,,,,,,,,,,,,,,,,,,,,,,,novelaudio/66_kopipa3.wav,novelaudio/66_kopipa2.wav,2,,,,,,j,8.7168,0,29,29,29,1,,,,,,,,,,,,,,,,,,,,,,,,
,,,,,,,,pngimages/36_microwave.png,Hiba Zouity,2035,2021-04-13_09h05.57.874,experiment,2020.1.3,MacIntel,60,,,,,,,,,,,,,,,,,test2,,,,,,,,,,,,,,,,,,,,,,,,,,,,,novelaudio/36_pipapa1.wav,novelaudio/36_pipapa2.wav,1,,,,,,j,1.184055,0,30,30,30,1,,,,,,,,,,,,,,,,,,,,,,,,
,,,,,,,,pngimages/81_cat.png,Hiba Zouity,2035,2021-04-13_09h05.57.874,experiment,2020.1.3,MacIntel,60,,,,,,,,,,,,,,,,,test2,,,,,,,,,,,,,,,,,,,,,,,,,,,,,novelaudio/81_kakapa3.wav,novelaudio/81_kakapa1.wav,2,,,,,,f,0.982515,0,31,31,31,1,,,,,,,,,,,,,,,,,,,,,,,,
,,,,,,,,pngimages/28_grape.png,Hiba Zouity,2035,2021-04-13_09h05.57.874,experiment,2020.1.3,MacIntel,60,,,,,,,,,,,,,,,,,test2,,,,,,,,,,,,,,,,,,,,,,,,,,,,,novelaudio/28_pipiki2.wav,novelaudio/28_pipiki1.wav,2,,,,,,j,0.118815,0,32,32,32,1,,,,,,,,,,,,,,,,,,,,,,,,
,,,,,,,,pngimages/65_wrench.png,Hiba Zouity,2035,2021-04-13_09h05.57.874,experiment,2020.1.3,MacIntel,60,,,,,,,,,,,,,,,,,test2,,,,,,,,,,,,,,,,,,,,,,,,,,,,,novelaudio/65_totipo3.wav,novelaudio/65_totipo2.wav,2,,,,,,j,3.31659,0,33,33,33,1,,,,,,,,,,,,,,,,,,,,,,,,
,,,,,,,,pngimages/51_pencil.png,Hiba Zouity,2035,2021-04-13_09h05.57.874,experiment,2020.1.3,MacIntel,60,,,,,,,,,,,,,,,,,test2,,,,,,,,,,,,,,,,,,,,,,,,,,,,,novelaudio/51_tapopa2.wav,novelaudio/51_tapopa3.wav,1,,,,,,j,2.50536,0,34,34,34,1,,,,,,,,,,,,,,,,,,,,,,,,
,,,,,,,,pngimages/44_envelope.png,Hiba Zouity,2035,2021-04-13_09h05.57.874,experiment,2020.1.3,MacIntel,60,,,,,,,,,,,,,,,,,test2,,,,,,,,,,,,,,,,,,,,,,,,,,,,,novelaudio/44_pokato3.wav,novelaudio/44_pokato1.wav,2,,,,,,j,2.368095,0,35,35,35,1,,,,,,,,,,,,,,,,,,,,,,,,
,,,,,,,,pngimages/70_hand.png,Hiba Zouity,2035,2021-04-13_09h05.57.874,experiment,2020.1.3,MacIntel,60,,,,,,,,,,,,,,,,,test2,,,,,,,,,,,,,,,,,,,,,,,,,,,,,novelaudio/70_kopati1.wav,novelaudio/70_kopati3.wav,2,,,,,,j,0.021085,0,36,36,36,1,,,,,,,,,,,,,,,,,,,,,,,,
,,,,,,,,pngimages/31_tomato.png,Hiba Zouity,2035,2021-04-13_09h05.57.874,experiment,2020.1.3,MacIntel,60,,,,,,,,,,,,,,,,,test2,,,,,,,,,,,,,,,,,,,,,,,,,,,,,novelaudio/31_kikopi2.wav,novelaudio/31_kikopi1.wav,2,,,,,,f,6.372995,0,37,37,37,1,,,,,,,,,,,,,,,,,,,,,,,,
,,,,,,,,pngimages/69_tooth.png,Hiba Zouity,2035,2021-04-13_09h05.57.874,experiment,2020.1.3,MacIntel,60,,,,,,,,,,,,,,,,,test2,,,,,,,,,,,,,,,,,,,,,,,,,,,,,novelaudio/69_kotota3.wav,novelaudio/69_kotota1.wav,2,,,,,,j,2.31204,0,38,38,38,1,,,,,,,,,,,,,,,,,,,,,,,,
,,,,,,,,pngimages/63_chair.png,Hiba Zouity,2035,2021-04-13_09h05.57.874,experiment,2020.1.3,MacIntel,60,,,,,,,,,,,,,,,,,test2,,,,,,,,,,,,,,,,,,,,,,,,,,,,,novelaudio/63_pitapa1.wav,novelaudio/63_pitapa3.wav,1,,,,,,f,2.71642,0,39,39,39,1,,,,,,,,,,,,,,,,,,,,,,,,
,,,,,,,,pngimages/42_harp.png,Hiba Zouity,2035,2021-04-13_09h05.57.874,experiment,2020.1.3,MacIntel,60,,,,,,,,,,,,,,,,,test2,,,,,,,,,,,,,,,,,,,,,,,,,,,,,novelaudio/42_tokota3.wav,novelaudio/42_tokota1.wav,2,,,,,,j,1.25299,0,40,40,40,1,,,,,,,,,,,,,,,,,,,,,,,,
,,,,,,,,pngimages/56_towel.png,Hiba Zouity,2035,2021-04-13_09h05.57.874,experiment,2020.1.3,MacIntel,60,,,,,,,,,,,,,,,,,test2,,,,,,,,,,,,,,,,,,,,,,,,,,,,,novelaudio/56_pipiko1.wav,novelaudio/56_pipiko2.wav,1,,,,,,f,2.96798,0,41,41,41,1,,,,,,,,,,,,,,,,,,,,,,,,
,,,,,,,,pngimages/77_bear.png,Hiba Zouity,2035,2021-04-13_09h05.57.874,experiment,2020.1.3,MacIntel,60,,,,,,,,,,,,,,,,,test2,,,,,,,,,,,,,,,,,,,,,,,,,,,,,novelaudio/77_takopo2.wav,novelaudio/77_takopo3.wav,1,,,,,,f,1.833345,0,42,42,42,1,,,,,,,,,,,,,,,,,,,,,,,,
,,,,,,,,pngimages/60_firewood.png,Hiba Zouity,2035,2021-04-13_09h05.57.874,experiment,2020.1.3,MacIntel,60,,,,,,,,,,,,,,,,,test2,,,,,,,,,,,,,,,,,,,,,,,,,,,,,novelaudio/60_pipopa1.wav,novelaudio/60_pipopa2.wav,1,,,,,,j,0.62446,0,43,43,43,1,,,,,,,,,,,,,,,,,,,,,,,,
,,,,,,,,pngimages/76_rabbit.png,Hiba Zouity,2035,2021-04-13_09h05.57.874,experiment,2020.1.3,MacIntel,60,,,,,,,,,,,,,,,,,test2,,,,,,,,,,,,,,,,,,,,,,,,,,,,,novelaudio/76_patoti3.wav,novelaudio/76_patoti1.wav,1,,,,,,f,0.48662,0,44,44,44,1,,,,,,,,,,,,,,,,,,,,,,,,
,,,,,,,,pngimages/80_dog.png,Hiba Zouity,2035,2021-04-13_09h05.57.874,experiment,2020.1.3,MacIntel,60,,,,,,,,,,,,,,,,,test2,,,,,,,,,,,,,,,,,,,,,,,,,,,,,novelaudio/80_tatato1.wav,novelaudio/80_tatato3.wav,2,,,,,,j,1.56698,0,45,45,45,1,,,,,,,,,,,,,,,,,,,,,,,,
,,,,,,,,pngimages/47_notebook.png,Hiba Zouity,2035,2021-04-13_09h05.57.874,experiment,2020.1.3,MacIntel,60,,,,,,,,,,,,,,,,,test2,,,,,,,,,,,,,,,,,,,,,,,,,,,,,novelaudio/47_takiko2.wav,novelaudio/47_takiko1.wav,1,,,,,,j,1.785575,0,46,46,46,1,,,,,,,,,,,,,,,,,,,,,,,,
,,,,,,,,pngimages/73_car.png,Hiba Zouity,2035,2021-04-13_09h05.57.874,experiment,2020.1.3,MacIntel,60,,,,,,,,,,,,,,,,,test2,,,,,,,,,,,,,,,,,,,,,,,,,,,,,novelaudio/73_takiti1.wav,novelaudio/73_takiti2.wav,2,,,,,,j,2.57241,0,47,47,47,1,,,,,,,,,,,,,,,,,,,,,,,,
,,,,,,,,pngimages/58_nail.png,Hiba Zouity,2035,2021-04-13_09h05.57.874,experiment,2020.1.3,MacIntel,60,,,,,,,,,,,,,,,,,test2,,,,,,,,,,,,,,,,,,,,,,,,,,,,,novelaudio/58_kipoki3.wav,novelaudio/58_kipoki1.wav,2,,,,,,j,4.669075,0,48,48,48,1,,,,,,,,,,,,,,,,,,,,,,,,
,,,,,,,,pngimages/71_eye.png,Hiba Zouity,2035,2021-04-13_09h05.57.874,experiment,2020.1.3,MacIntel,60,,,,,,,,,,,,,,,,,test2,,,,,,,,,,,,,,,,,,,,,,,,,,,,,novelaudio/71_kotato2.wav,novelaudio/71_kotato1.wav,2,,,,,,f,3.06674,0,49,49,49,1,,,,,,,,,,,,,,,,,,,,,,,,
,,,,,,,,pngimages/34_knife.png,Hiba Zouity,2035,2021-04-13_09h05.57.874,experiment,2020.1.3,MacIntel,60,,,,,,,,,,,,,,,,,test2,,,,,,,,,,,,,,,,,,,,,,,,,,,,,novelaudio/34_kipaki1.wav,novelaudio/34_kipaki2.wav,1,,,,,,j,1.224415,0,50,50,50,1,,,,,,,,,,,,,,,,,,,,,,,,
,,,,,,,,pngimages/33_watermelon.png,Hiba Zouity,2035,2021-04-13_09h05.57.874,experiment,2020.1.3,MacIntel,60,,,,,,,,,,,,,,,,,test2,,,,,,,,,,,,,,,,,,,,,,,,,,,,,novelaudio/33_tipoka2.wav,novelaudio/33_tipoka1.wav,2,,,,,,f,4.0992,0,51,51,51,1,,,,,,,,,,,,,,,,,,,,,,,,
,,,,,,,,pngimages/30_mushroom.png,Hiba Zouity,2035,2021-04-13_09h05.57.874,experiment,2020.1.3,MacIntel,60,,,,,,,,,,,,,,,,,test2,,,,,,,,,,,,,,,,,,,,,,,,,,,,,novelaudio/30_tikipa1.wav,novelaudio/30_tikipa3.wav,1,,,,,,j,1.923015,0,52,52,52,1,,,,,,,,,,,,,,,,,,,,,,,,
,,,,,,,,pngimages/38_plate.png,Hiba Zouity,2035,2021-04-13_09h05.57.874,experiment,2020.1.3,MacIntel,60,,,,,,,,,,,,,,,,,test2,,,,,,,,,,,,,,,,,,,,,,,,,,,,,novelaudio/38_kokiko1.wav,novelaudio/38_kokiko2.wav,2,,,,,,j,3.78481,0,53,53,53,1,,,,,,,,,,,,,,,,,,,,,,,,
,,,,,,,,pngimages/65_wrench.png,Hiba Zouity,2035,2021-04-13_09h05.57.874,experiment,2020.1.3,MacIntel,60,,,,,,,,,,,,,,,,,test3,,,,,,,,,,,,,,,,,,,,,,,,,,,,,novelaudio/65_totipo2.wav,novelaudio/65_totipo3.wav,1,,,,,,,,,,,,,j,4.745755,j,8.082695,0,0,0,0,1,,,,,,,,,,,,,,,
,,,,,,,,pngimages/68_heart.png,Hiba Zouity,2035,2021-04-13_09h05.57.874,experiment,2020.1.3,MacIntel,60,,,,,,,,,,,,,,,,,test3,,,,,,,,,,,,,,,,,,,,,,,,,,,,,novelaudio/68_pokopo2.wav,novelaudio/68_pokopo1.wav,2,,,,,,,,,,,,,,,j,3.461465,0,1,1,1,1,,,,,,,,,,,,,,,
,,,,,,,,pngimages/49_calculator.png,Hiba Zouity,2035,2021-04-13_09h05.57.874,experiment,2020.1.3,MacIntel,60,,,,,,,,,,,,,,,,,test3,,,,,,,,,,,,,,,,,,,,,,,,,,,,,novelaudio/49_tatopi3.wav,novelaudio/49_tatopi2.wav,1,,,,,,,,,,,,,,,f,8.12976,0,2,2,2,1,,,,,,,,,,,,,,,
,,,,,,,,pngimages/45_scissors.png,Hiba Zouity,2035,2021-04-13_09h05.57.874,experiment,2020.1.3,MacIntel,60,,,,,,,,,,,,,,,,,test3,,,,,,,,,,,,,,,,,,,,,,,,,,,,,novelaudio/45_totaka1.wav,novelaudio/45_totaka3.wav,1,,,,,,,,,,,,,,,j,3.827575,0,3,3,3,1,,,,,,,,,,,,,,,
,,,,,,,,pngimages/58_nail.png,Hiba Zouity,2035,2021-04-13_09h05.57.874,experiment,2020.1.3,MacIntel,60,,,,,,,,,,,,,,,,,test3,,,,,,,,,,,,,,,,,,,,,,,,,,,,,novelaudio/58_kipoki1.wav,novelaudio/58_kipoki3.wav,1,,,,,,,,,,,,,,,j,2.92991,0,4,4,4,1,,,,,,,,,,,,,,,
,,,,,,,,pngimages/31_tomato.png,Hiba Zouity,2035,2021-04-13_09h05.57.874,experiment,2020.1.3,MacIntel,60,,,,,,,,,,,,,,,,,test3,,,,,,,,,,,,,,,,,,,,,,,,,,,,,novelaudio/31_kikopi1.wav,novelaudio/31_kikopi3.wav,1,,,,,,,,,,,,,,,j,1.97946,0,5,5,5,1,,,,,,,,,,,,,,,
,,,,,,,,pngimages/46_paper.png,Hiba Zouity,2035,2021-04-13_09h05.57.874,experiment,2020.1.3,MacIntel,60,,,,,,,,,,,,,,,,,test3,,,,,,,,,,,,,,,,,,,,,,,,,,,,,novelaudio/46_tapiti1.wav,novelaudio/46_tapiti2.wav,2,,,,,,,,,,,,,,,j,3.11487,0,6,6,6,1,,,,,,,,,,,,,,,
,,,,,,,,pngimages/33_watermelon.png,Hiba Zouity,2035,2021-04-13_09h05.57.874,experiment,2020.1.3,MacIntel,60,,,,,,,,,,,,,,,,,test3,,,,,,,,,,,,,,,,,,,,,,,,,,,,,novelaudio/33_tipoka1.wav,novelaudio/33_tipoka3.wav,1,,,,,,,,,,,,,,,f,4.06558,0,7,7,7,1,,,,,,,,,,,,,,,
,,,,,,,,pngimages/29_cherry.png,Hiba Zouity,2035,2021-04-13_09h05.57.874,experiment,2020.1.3,MacIntel,60,,,,,,,,,,,,,,,,,test3,,,,,,,,,,,,,,,,,,,,,,,,,,,,,novelaudio/29_pipito1.wav,novelaudio/29_pipito2.wav,1,,,,,,,,,,,,,,,j,5.446275,0,8,8,8,1,,,,,,,,,,,,,,,
,,,,,,,,pngimages/41_piano.png,Hiba Zouity,2035,2021-04-13_09h05.57.874,experiment,2020.1.3,MacIntel,60,,,,,,,,,,,,,,,,,test3,,,,,,,,,,,,,,,,,,,,,,,,,,,,,novelaudio/41_pototo1.wav,novelaudio/41_pototo2.wav,1,,,,,,,,,,,,,,,f,4.46216,0,9,9,9,1,,,,,,,,,,,,,,,
,,,,,,,,pngimages/67_laptop.png,Hiba Zouity,2035,2021-04-13_09h05.57.874,experiment,2020.1.3,MacIntel,60,,,,,,,,,,,,,,,,,test3,,,,,,,,,,,,,,,,,,,,,,,,,,,,,novelaudio/67_tokoki1.wav,novelaudio/67_tokoki3.wav,2,,,,,,,,,,,,,,,f,4.562825,0,10,10,10,1,,,,,,,,,,,,,,,
,,,,,,,,pngimages/43_guitar.png,Hiba Zouity,2035,2021-04-13_09h05.57.874,experiment,2020.1.3,MacIntel,60,,,,,,,,,,,,,,,,,test3,,,,,,,,,,,,,,,,,,,,,,,,,,,,,novelaudio/43_potaki3.wav,novelaudio/43_potaki2.wav,1,,,,,,,,,,,,,,,j,2.502015,0,11,11,11,1,,,,,,,,,,,,,,,
,,,,,,,,pngimages/69_tooth.png,Hiba Zouity,2035,2021-04-13_09h05.57.874,experiment,2020.1.3,MacIntel,60,,,,,,,,,,,,,,,,,test3,,,,,,,,,,,,,,,,,,,,,,,,,,,,,novelaudio/69_kotota2.wav,novelaudio/69_kotota1.wav,2,,,,,,,,,,,,,,,f,4.650705,0,12,12,12,1,,,,,,,,,,,,,,,
,,,,,,,,pngimages/79_pig.png,Hiba Zouity,2035,2021-04-13_09h05.57.874,experiment,2020.1.3,MacIntel,60,,,,,,,,,,,,,,,,,test3,,,,,,,,,,,,,,,,,,,,,,,,,,,,,novelaudio/79_katapi3.wav,novelaudio/79_katapi1.wav,1,,,,,,,,,,,,,,,j,0.18285,0,13,13,13,1,,,,,,,,,,,,,,,
,,,,,,,,pngimages/44_envelope.png,Hiba Zouity,2035,2021-04-13_09h05.57.874,experiment,2020.1.3,MacIntel,60,,,,,,,,,,,,,,,,,test3,,,,,,,,,,,,,,,,,,,,,,,,,,,,,novelaudio/44_pokato2.wav,novelaudio/44_pokato1.wav,2,,,,,,,,,,,,,,,j,0.59508,0,14,14,14,1,,,,,,,,,,,,,,,
,,,,,,,,pngimages/80_dog.png,Hiba Zouity,2035,2021-04-13_09h05.57.874,experiment,2020.1.3,MacIntel,60,,,,,,,,,,,,,,,,,test3,,,,,,,,,,,,,,,,,,,,,,,,,,,,,novelaudio/80_tatato3.wav,novelaudio/80_tatato1.wav,1,,,,,,,,,,,,,,,f,3.48093,0,15,15,15,1,,,,,,,,,,,,,,,
,,,,,,,,pngimages/55_toilet.png,Hiba Zouity,2035,2021-04-13_09h05.57.874,experiment,2020.1.3,MacIntel,60,,,,,,,,,,,,,,,,,test3,,,,,,,,,,,,,,,,,,,,,,,,,,,,,novelaudio/55_pikiki1.wav,novelaudio/55_pikiki3.wav,1,,,,,,,,,,,,,,,f,3.76945,0,16,16,16,1,,,,,,,,,,,,,,,
,,,,,,,,pngimages/72_nose.png,Hiba Zouity,2035,2021-04-13_09h05.57.874,experiment,2020.1.3,MacIntel,60,,,,,,,,,,,,,,,,,test3,,,,,,,,,,,,,,,,,,,,,,,,,,,,,novelaudio/72_topata3.wav,novelaudio/72_topata1.wav,2,,,,,,,,,,,,,,,f,3.027435,0,17,17,17,1,,,,,,,,,,,,,,,
,,,,,,,,pngimages/62_screwdriver.png,Hiba Zouity,2035,2021-04-13_09h05.57.874,experiment,2020.1.3,MacIntel,60,,,,,,,,,,,,,,,,,test3,,,,,,,,,,,,,,,,,,,,,,,,,,,,,novelaudio/62_pitako3.wav,novelaudio/62_pitako1.wav,2,,,,,,,,,,,,,,,f,3.24948,0,18,18,18,1,,,,,,,,,,,,,,,
,,,,,,,,pngimages/35_skillet.png,Hiba Zouity,2035,2021-04-13_09h05.57.874,experiment,2020.1.3,MacIntel,60,,,,,,,,,,,,,,,,,test3,,,,,,,,,,,,,,,,,,,,,,,,,,,,,novelaudio/35_titato1.wav,novelaudio/35_titato3.wav,1,,,,,,,,,,,,,,,j,2.90152,0,19,19,19,1,,,,,,,,,,,,,,,
,,,,,,,,pngimages/50_ruler.png,Hiba Zouity,2035,2021-04-13_09h05.57.874,experiment,2020.1.3,MacIntel,60,,,,,,,,,,,,,,,,,test3,,,,,,,,,,,,,,,,,,,,,,,,,,,,,novelaudio/50_katoko3.wav,novelaudio/50_katoko2.wav,2,,,,,,,,,,,,,,,f,0.467845,0,20,20,20,1,,,,,,,,,,,,,,,
,,,,,,,,pngimages/59_umbrella.png,Hiba Zouity,2035,2021-04-13_09h05.57.874,experiment,2020.1.3,MacIntel,60,,,,,,,,,,,,,,,,,test3,,,,,,,,,,,,,,,,,,,,,,,,,,,,,novelaudio/59_tipoko1.wav,novelaudio/59_tipoko3.wav,1,,,,,,,,,,,,,,,f,1.030985,0,21,21,21,1,,,,,,,,,,,,,,,
,,,,,,,,pngimages/47_notebook.png,Hiba Zouity,2035,2021-04-13_09h05.57.874,experiment,2020.1.3,MacIntel,60,,,,,,,,,,,,,,,,,test3,,,,,,,,,,,,,,,,,,,,,,,,,,,,,novelaudio/47_takiko3.wav,novelaudio/47_takiko2.wav,2,,,,,,,,,,,,,,,f,1.446205,0,22,22,22,1,,,,,,,,,,,,,,,
,,,,,,,,pngimages/28_grape.png,Hiba Zouity,2035,2021-04-13_09h05.57.874,experiment,2020.1.3,MacIntel,60,,,,,,,,,,,,,,,,,test3,,,,,,,,,,,,,,,,,,,,,,,,,,,,,novelaudio/28_pipiki3.wav,novelaudio/28_pipiki1.wav,2,,,,,,,,,,,,,,,j,2.37881,0,23,23,23,1,,,,,,,,,,,,,,,
,,,,,,,,pngimages/64_shovel.png,Hiba Zouity,2035,2021-04-13_09h05.57.874,experiment,2020.1.3,MacIntel,60,,,,,,,,,,,,,,,,,test3,,,,,,,,,,,,,,,,,,,,,,,,,,,,,novelaudio/64_popiti2.wav,novelaudio/64_popiti1.wav,1,,,,,,,,,,,,,,,j,4.06288,0,24,24,24,1,,,,,,,,,,,,,,,
,,,,,,,,pngimages/34_knife.png,Hiba Zouity,2035,2021-04-13_09h05.57.874,experiment,2020.1.3,MacIntel,60,,,,,,,,,,,,,,,,,test3,,,,,,,,,,,,,,,,,,,,,,,,,,,,,novelaudio/34_kipaki1.wav,novelaudio/34_kipaki3.wav,1,,,,,,,,,,,,,,,f,1.731245,0,25,25,25,1,,,,,,,,,,,,,,,
,,,,,,,,pngimages/48_brush.png,Hiba Zouity,2035,2021-04-13_09h05.57.874,experiment,2020.1.3,MacIntel,60,,,,,,,,,,,,,,,,,test3,,,,,,,,,,,,,,,,,,,,,,,,,,,,,novelaudio/48_pakipa1.wav,novelaudio/48_pakipa2.wav,2,,,,,,,,,,,,,,,f,2.6595,0,26,26,26,1,,,,,,,,,,,,,,,
,,,,,,,,pngimages/56_towel.png,Hiba Zouity,2035,2021-04-13_09h05.57.874,experiment,2020.1.3,MacIntel,60,,,,,,,,,,,,,,,,,test3,,,,,,,,,,,,,,,,,,,,,,,,,,,,,novelaudio/56_pipiko3.wav,novelaudio/56_pipiko1.wav,2,,,,,,,,,,,,,,,f,2.86219,0,27,27,27,1,,,,,,,,,,,,,,,
,,,,,,,,pngimages/81_cat.png,Hiba Zouity,2035,2021-04-13_09h05.57.874,experiment,2020.1.3,MacIntel,60,,,,,,,,,,,,,,,,,test3,,,,,,,,,,,,,,,,,,,,,,,,,,,,,novelaudio/81_kakapa1.wav,novelaudio/81_kakapa3.wav,1,,,,,,,,,,,,,,,f,7.913325,0,28,28,28,1,,,,,,,,,,,,,,,
,,,,,,,,pngimages/32_greenpepper.png,Hiba Zouity,2035,2021-04-13_09h05.57.874,experiment,2020.1.3,MacIntel,60,,,,,,,,,,,,,,,,,test3,,,,,,,,,,,,,,,,,,,,,,,,,,,,,novelaudio/32_kipoto1.wav,novelaudio/32_kipoto3.wav,1,,,,,,,,,,,,,,,f,13.01265,0,29,29,29,1,,,,,,,,,,,,,,,
,,,,,,,,pngimages/57_flashlight.png,Hiba Zouity,2035,2021-04-13_09h05.57.874,experiment,2020.1.3,MacIntel,60,,,,,,,,,,,,,,,,,test3,,,,,,,,,,,,,,,,,,,,,,,,,,,,,novelaudio/57_tipipa1.wav,novelaudio/57_tipipa2.wav,1,,,,,,,,,,,,,,,f,2.614395,0,30,30,30,1,,,,,,,,,,,,,,,
,,,,,,,,pngimages/78_cow.png,Hiba Zouity,2035,2021-04-13_09h05.57.874,experiment,2020.1.3,MacIntel,60,,,,,,,,,,,,,,,,,test3,,,,,,,,,,,,,,,,,,,,,,,,,,,,,novelaudio/78_kakoka3.wav,novelaudio/78_kakoka2.wav,2,,,,,,,,,,,,,,,f,8.74765,0,31,31,31,1,,,,,,,,,,,,,,,
,,,,,,,,pngimages/61_key.png,Hiba Zouity,2035,2021-04-13_09h05.57.874,experiment,2020.1.3,MacIntel,60,,,,,,,,,,,,,,,,,test3,,,,,,,,,,,,,,,,,,,,,,,,,,,,,novelaudio/61_pikati2.wav,novelaudio/61_pikati1.wav,2,,,,,,,,,,,,,,,f,4.150235,0,32,32,32,1,,,,,,,,,,,,,,,
,,,,,,,,pngimages/37_mug.png,Hiba Zouity,2035,2021-04-13_09h05.57.874,experiment,2020.1.3,MacIntel,60,,,,,,,,,,,,,,,,,test3,,,,,,,,,,,,,,,,,,,,,,,,,,,,,novelaudio/37_kokiti3.wav,novelaudio/37_kokiti2.wav,2,,,,,,,,,,,,,,,f,8.82858,0,33,33,33,1,,,,,,,,,,,,,,,
,,,,,,,,pngimages/39_fork.png,Hiba Zouity,2035,2021-04-13_09h05.57.874,experiment,2020.1.3,MacIntel,60,,,,,,,,,,,,,,,,,test3,,,,,,,,,,,,,,,,,,,,,,,,,,,,,novelaudio/39_kotipa3.wav,novelaudio/39_kotipa2.wav,2,,,,,,,,,,,,,,,f,1.200755,0,34,34,34,1,,,,,,,,,,,,,,,
,,,,,,,,pngimages/51_pencil.png,Hiba Zouity,2035,2021-04-13_09h05.57.874,experiment,2020.1.3,MacIntel,60,,,,,,,,,,,,,,,,,test3,,,,,,,,,,,,,,,,,,,,,,,,,,,,,novelaudio/51_tapopa1.wav,novelaudio/51_tapopa2.wav,2,,,,,,,,,,,,,,,f,5.412215,0,35,35,35,1,,,,,,,,,,,,,,,
,,,,,,,,pngimages/36_microwave.png,Hiba Zouity,2035,2021-04-13_09h05.57.874,experiment,2020.1.3,MacIntel,60,,,,,,,,,,,,,,,,,test3,,,,,,,,,,,,,,,,,,,,,,,,,,,,,novelaudio/36_pipapa1.wav,novelaudio/36_pipapa3.wav,1,,,,,,,,,,,,,,,j,0.695585,0,36,36,36,1,,,,,,,,,,,,,,,
,,,,,,,,pngimages/53_hammer.png,Hiba Zouity,2035,2021-04-13_09h05.57.874,experiment,2020.1.3,MacIntel,60,,,,,,,,,,,,,,,,,test3,,,,,,,,,,,,,,,,,,,,,,,,,,,,,novelaudio/53_patapo2.wav,novelaudio/53_patapo3.wav,2,,,,,,,,,,,,,,,j,4.56218,0,37,37,37,1,,,,,,,,,,,,,,,
,,,,,,,,pngimages/38_plate.png,Hiba Zouity,2035,2021-04-13_09h05.57.874,experiment,2020.1.3,MacIntel,60,,,,,,,,,,,,,,,,,test3,,,,,,,,,,,,,,,,,,,,,,,,,,,,,novelaudio/38_kokiko1.wav,novelaudio/38_kokiko2.wav,2,,,,,,,,,,,,,,,f,4.6617,0,38,38,38,1,,,,,,,,,,,,,,,
,,,,,,,,pngimages/74_boat.png,Hiba Zouity,2035,2021-04-13_09h05.57.874,experiment,2020.1.3,MacIntel,60,,,,,,,,,,,,,,,,,test3,,,,,,,,,,,,,,,,,,,,,,,,,,,,,novelaudio/74_tatiko2.wav,novelaudio/74_tatiko1.wav,1,,,,,,,,,,,,,,,f,0.56177,0,39,39,39,1,,,,,,,,,,,,,,,
,,,,,,,,pngimages/63_chair.png,Hiba Zouity,2035,2021-04-13_09h05.57.874,experiment,2020.1.3,MacIntel,60,,,,,,,,,,,,,,,,,test3,,,,,,,,,,,,,,,,,,,,,,,,,,,,,novelaudio/63_pitapa2.wav,novelaudio/63_pitapa1.wav,2,,,,,,,,,,,,,,,j,0.85436,0,40,40,40,1,,,,,,,,,,,,,,,
,,,,,,,,pngimages/77_bear.png,Hiba Zouity,2035,2021-04-13_09h05.57.874,experiment,2020.1.3,MacIntel,60,,,,,,,,,,,,,,,,,test3,,,,,,,,,,,,,,,,,,,,,,,,,,,,,novelaudio/77_takopo3.wav,novelaudio/77_takopo2.wav,2,,,,,,,,,,,,,,,f,0.629945,0,41,41,41,1,,,,,,,,,,,,,,,
,,,,,,,,pngimages/52_newspaper.png,Hiba Zouity,2035,2021-04-13_09h05.57.874,experiment,2020.1.3,MacIntel,60,,,,,,,,,,,,,,,,,test3,,,,,,,,,,,,,,,,,,,,,,,,,,,,,novelaudio/52_pakaki3.wav,novelaudio/52_pakaki2.wav,1,,,,,,,,,,,,,,,j,1.86309,0,42,42,42,1,,,,,,,,,,,,,,,
,,,,,,,,pngimages/30_mushroom.png,Hiba Zouity,2035,2021-04-13_09h05.57.874,experiment,2020.1.3,MacIntel,60,,,,,,,,,,,,,,,,,test3,,,,,,,,,,,,,,,,,,,,,,,,,,,,,novelaudio/30_tikipa1.wav,novelaudio/30_tikipa3.wav,1,,,,,,,,,,,,,,,f,0.26345,0,43,43,43,1,,,,,,,,,,,,,,,
,,,,,,,,pngimages/70_hand.png,Hiba Zouity,2035,2021-04-13_09h05.57.874,experiment,2020.1.3,MacIntel,60,,,,,,,,,,,,,,,,,test3,,,,,,,,,,,,,,,,,,,,,,,,,,,,,novelaudio/70_kopati2.wav,novelaudio/70_kopati3.wav,2,,,,,,,,,,,,,,,f,6.952815,0,44,44,44,1,,,,,,,,,,,,,,,
,,,,,,,,pngimages/60_firewood.png,Hiba Zouity,2035,2021-04-13_09h05.57.874,experiment,2020.1.3,MacIntel,60,,,,,,,,,,,,,,,,,test3,,,,,,,,,,,,,,,,,,,,,,,,,,,,,novelaudio/60_pipopa1.wav,novelaudio/60_pipopa2.wav,1,,,,,,,,,,,,,,,f,2.713285,0,45,45,45,1,,,,,,,,,,,,,,,
,,,,,,,,pngimages/75_chicken.png,Hiba Zouity,2035,2021-04-13_09h05.57.874,experiment,2020.1.3,MacIntel,60,,,,,,,,,,,,,,,,,test3,,,,,,,,,,,,,,,,,,,,,,,,,,,,,novelaudio/75_kakita3.wav,novelaudio/75_kakita2.wav,2,,,,,,,,,,,,,,,j,1.300005,0,46,46,46,1,,,,,,,,,,,,,,,
,,,,,,,,pngimages/54_toiletpaper.png,Hiba Zouity,2035,2021-04-13_09h05.57.874,experiment,2020.1.3,MacIntel,60,,,,,,,,,,,,,,,,,test3,,,,,,,,,,,,,,,,,,,,,,,,,,,,,novelaudio/54_kapapa3.wav,novelaudio/54_kapapa1.wav,2,,,,,,,,,,,,,,,j,0.262635,0,47,47,47,1,,,,,,,,,,,,,,,
,,,,,,,,pngimages/71_eye.png,Hiba Zouity,2035,2021-04-13_09h05.57.874,experiment,2020.1.3,MacIntel,60,,,,,,,,,,,,,,,,,test3,,,,,,,,,,,,,,,,,,,,,,,,,,,,,novelaudio/71_kotato2.wav,novelaudio/71_kotato1.wav,2,,,,,,,,,,,,,,,f,3.94604,0,48,48,48,1,,,,,,,,,,,,,,,
,,,,,,,,pngimages/42_harp.png,Hiba Zouity,2035,2021-04-13_09h05.57.874,experiment,2020.1.3,MacIntel,60,,,,,,,,,,,,,,,,,test3,,,,,,,,,,,,,,,,,,,,,,,,,,,,,novelaudio/42_tokota1.wav,novelaudio/42_tokota2.wav,1,,,,,,,,,,,,,,,f,1.580555,0,49,49,49,1,,,,,,,,,,,,,,,
,,,,,,,,pngimages/66_safe.png,Hiba Zouity,2035,2021-04-13_09h05.57.874,experiment,2020.1.3,MacIntel,60,,,,,,,,,,,,,,,,,test3,,,,,,,,,,,,,,,,,,,,,,,,,,,,,novelaudio/66_kopipa2.wav,novelaudio/66_kopipa3.wav,1,,,,,,,,,,,,,,,j,1.730745,0,50,50,50,1,,,,,,,,,,,,,,,
,,,,,,,,pngimages/73_car.png,Hiba Zouity,2035,2021-04-13_09h05.57.874,experiment,2020.1.3,MacIntel,60,,,,,,,,,,,,,,,,,test3,,,,,,,,,,,,,,,,,,,,,,,,,,,,,novelaudio/73_takiti1.wav,novelaudio/73_takiti2.wav,2,,,,,,,,,,,,,,,f,2.116805,0,51,51,51,1,,,,,,,,,,,,,,,
,,,,,,,,pngimages/40_spoon.png,Hiba Zouity,2035,2021-04-13_09h05.57.874,experiment,2020.1.3,MacIntel,60,,,,,,,,,,,,,,,,,test3,,,,,,,,,,,,,,,,,,,,,,,,,,,,,novelaudio/40_kototi1.wav,novelaudio/40_kototi3.wav,2,,,,,,,,,,,,,,,f,10.3959,0,52,52,52,1,,,,,,,,,,,,,,,
,,,,,,,,pngimages/76_rabbit.png,Hiba Zouity,2035,2021-04-13_09h05.57.874,experiment,2020.1.3,MacIntel,60,,,,,,,,,,,,,,,,,test3,,,,,,,,,,,,,,,,,,,,,,,,,,,,,novelaudio/76_patoti3.wav,novelaudio/76_patoti1.wav,1,,,,,,,,,,,,,,,f,7.145375,0,53,53,53,1,,,,,,,,,,,,,,,
,,,,,,,,,Hiba Zouity,2035,2021-04-13_09h05.57.874,experiment,2020.1.3,MacIntel,60,,,,,,,,,,,,,,,,,postTest,,,,,,,,,,,,,,,,,,,,,,,,,,,,,,,,,,,,,,,,,,,,,,,,,,,,,f,6.91042,f,1.39578,0,0,0,0,1,postTest/82_tipiko1.wav,postTest/82_tipiko1.wav,postTest/82_tipiko3.wav,audioA,,
,,,,,,,,,Hiba Zouity,2035,2021-04-13_09h05.57.874,experiment,2020.1.3,MacIntel,60,,,,,,,,,,,,,,,,,postTest,,,,,,,,,,,,,,,,,,,,,,,,,,,,,,,,,,,,,,,,,,,,,,,,,,,,,,,f,0.244685,0,1,1,1,1,postTest/83_pitita3.wav,postTest/83_pitita3.wav,postTest/83_pitita2.wav,audioA,,
,,,,,,,,,Hiba Zouity,2035,2021-04-13_09h05.57.874,experiment,2020.1.3,MacIntel,60,,,,,,,,,,,,,,,,,postTest,,,,,,,,,,,,,,,,,,,,,,,,,,,,,,,,,,,,,,,,,,,,,,,,,,,,,,,,,0,2,2,2,1,postTest/84_pitoka3.wav,postTest/84_pitoka1.wav,postTest/84_pitoka1.wav,audioB,,
,,,,,,,,,Hiba Zouity,2035,2021-04-13_09h05.57.874,experiment,2020.1.3,MacIntel,60,,,,,,,,,,,,,,,,,postTest,,,,,,,,,,,,,,,,,,,,,,,,,,,,,,,,,,,,,,,,,,,,,,,,,,,,,,,f,5.66116,0,3,3,3,1,postTest/85_kipata2.wav,postTest/85_kipata2.wav,postTest/85_kipata3.wav,audioA,,
,,,,,,,,,Hiba Zouity,2035,2021-04-13_09h05.57.874,experiment,2020.1.3,MacIntel,60,,,,,,,,,,,,,,,,,postTest,,,,,,,,,,,,,,,,,,,,,,,,,,,,,,,,,,,,,,,,,,,,,,,,,,,,,,,j,0.33775,0,4,4,4,1,postTest/86_totipa2.wav,postTest/86_totipa1.wav,postTest/86_totipa1.wav,audioB,,
,,,,,,,,,Hiba Zouity,2035,2021-04-13_09h05.57.874,experiment,2020.1.3,MacIntel,60,,,,,,,,,,,,,,,,,postTest,,,,,,,,,,,,,,,,,,,,,,,,,,,,,,,,,,,,,,,,,,,,,,,,,,,,,,,j,2.39968,0,5,5,5,1,postTest/87_kopoko1.wav,postTest/87_kopoko3.wav,postTest/87_kopoko3.wav,audioB,,
,,,,,,,,,Hiba Zouity,2035,2021-04-13_09h05.57.874,experiment,2020.1.3,MacIntel,60,,,,,,,,,,,,,,,,,postTest,,,,,,,,,,,,,,,,,,,,,,,,,,,,,,,,,,,,,,,,,,,,,,,,,,,,,,,f,0.05498,0,6,6,6,1,postTest/88_pokota2.wav,postTest/88_pokota2.wav,postTest/88_pokota1.wav,audioA,,
,,,,,,,,,Hiba Zouity,2035,2021-04-13_09h05.57.874,experiment,2020.1.3,MacIntel,60,,,,,,,,,,,,,,,,,postTest,,,,,,,,,,,,,,,,,,,,,,,,,,,,,,,,,,,,,,,,,,,,,,,,,,,,,,,j,0.532425,0,7,7,7,1,postTest/89_totako3.wav,postTest/89_totako2.wav,postTest/89_totako2.wav,audioB,,
,,,,,,,,,Hiba Zouity,2035,2021-04-13_09h05.57.874,experiment,2020.1.3,MacIntel,60,,,,,,,,,,,,,,,,,postTest,,,,,,,,,,,,,,,,,,,,,,,,,,,,,,,,,,,,,,,,,,,,,,,,,,,,,,,j,0.44863,0,8,8,8,1,postTest/90_papiki2.wav,postTest/90_papiki3.wav,postTest/90_papiki3.wav,audioB,,
,,,,,,,,,Hiba Zouity,2035,2021-04-13_09h05.57.874,experiment,2020.1.3,MacIntel,60,,,,,,,,,,,,,,,,,postTest,,,,,,,,,,,,,,,,,,,,,,,,,,,,,,,,,,,,,,,,,,,,,,,,,,,,,,,f,0.30102,0,9,9,9,1,postTest/91_papipo1.wav,postTest/91_papipo1.wav,postTest/91_papipo2.wav,audioA,,
,,,,,,,,,Hiba Zouity,2035,2021-04-13_09h05.57.874,experiment,2020.1.3,MacIntel,60,,,,,,,,,,,,,,,,,postTest,,,,,,,,,,,,,,,,,,,,,,,,,,,,,,,,,,,,,,,,,,,,,,,,,,,,,,,j,0.472215,0,10,10,10,1,postTest/92_katoki1.wav,postTest/92_katoki2.wav,postTest/92_katoki2.wav,audioB,,
,,,,,,,,,Hiba Zouity,2035,2021-04-13_09h05.57.874,experiment,2020.1.3,MacIntel,60,,,,,,,,,,,,,,,,,postTest,,,,,,,,,,,,,,,,,,,,,,,,,,,,,,,,,,,,,,,,,,,,,,,,,,,,,,,f,0.890575,0,11,11,11,1,postTest/93_pakopa3.wav,postTest/93_pakopa3.wav,postTest/93_pakopa1.wav,audioA,,
,,,,,,,,,Hiba Zouity,2035,2021-04-13_09h05.57.874,experiment,2020.1.3,MacIntel,60,,,,,,,,,,,,,,,,,,,,,,,,,,,,,,,,,,,,,,,,,,,,,,,,,,,,,,,,,,,,,,,,,,,,,,,,,,,,,,,,,,,space,1.91567
