skipTrain1Type.keys,train1Words.thisRepN,train1Words.thisTrialN,train1Words.thisN,train1Words.thisIndex,train1Words.ran,audio,imageLoc,participant,ID Number,date,expName,psychopyVersion,OS,frameRate,train1QuestAdvance.keys,break_loop.thisRepN,break_loop.thisTrialN,break_loop.thisN,break_loop.thisIndex,break_loop.ran,train1Response.keys,train1Response.rt,train1Questions.thisRepN,train1Questions.thisTrialN,train1Questions.thisN,train1Questions.thisIndex,train1Questions.ran,audioTrue,imageTrue,currentPhase,imageFalse,truePos,falsePos,trial1phases.thisRepN,trial1phases.thisTrialN,trial1phases.thisN,trial1phases.thisIndex,trial1phases.ran,condFiles,testFiles,alltrain1.thisRepN,alltrain1.thisTrialN,alltrain1.thisN,alltrain1.thisIndex,alltrain1.ran,condFile,numWords,skipTrain1Type.rt,train1QuestAdvance.rt,skipTest1Instr.keys,skipTest1Instr.rt,key_resp.keys,key_resp.rt,test1Response.keys,test1Response.rt,test1Loop.thisRepN,test1Loop.thisTrialN,test1Loop.thisN,test1Loop.thisIndex,test1Loop.ran,firstAudio,secondAudio,whichAudio,feedback,skipTest2Instr.keys,skipTest2Instr.rt,key_resp_2.keys,key_resp_2.rt,test2Response.keys,test2Response.rt,test2Loop.thisRepN,test2Loop.thisTrialN,test2Loop.thisN,test2Loop.thisIndex,test2Loop.ran,skipTest3Instr.keys,skipTest3Instr.rt,test3Response.keys,test3Response.rt,test3Loop.thisRepN,test3Loop.thisTrialN,test3Loop.thisN,test3Loop.thisIndex,test3Loop.ran,skipPostTestInstr.keys,skipPostTestInstr.rt,postTestResponse.keys,postTestResponse.rt,postTestLoop.thisRepN,postTestLoop.thisTrialN,postTestLoop.thisN,postTestLoop.thisIndex,postTestLoop.ran,audioA,audioX,audioB,correctLabel,quit.keys,quit.rt
,0,0,0,0,1,trainingaudio/06_titoka3.wav,pngimages/06_tent.png,Omer Alrefaai,1048,2020-11-23_17h03.35.578,experiment,2020.1.3,Win32,60,,,,,,,,,,,,,,,,,,,,,,,,,,,,,,,,,,,,,,,,,,,,,,,,,,,,,,,,,,,,,,,,,,,,,,,,,,,,,,,,,,,,,
,,,,,,,,Omer Alrefaai,1048,2020-11-23_17h03.35.578,experiment,2020.1.3,Win32,60,,0,0,0,0,1,,,,,,,,,,,,,,,,,,,,,,,,,,,,,,,,,,,,,,,,,,,,,,,,,,,,,,,,,,,,,,,,,,,,,,,,,,,,,,,
,,,,,,,,Omer Alrefaai,1048,2020-11-23_17h03.35.578,experiment,2020.1.3,Win32,60,,,,,,,f,1.87039,0,0,0,0,1,trainingaudio/19_papipi1.wav,pngimages/19_burger.png,train1P1,pngimages/06_tent.png,-0.5,0.5,,,,,,,,,,,,,,,,,,,,,,,,,,,,,,,,,,,,,,,,,,,,,,,,,,,,,,,,,,,,,,,,,,
,,,,,,,,Omer Alrefaai,1048,2020-11-23_17h03.35.578,experiment,2020.1.3,Win32,60,,,,,,,,,,,,,,,,,,,,0,0,0,0,1,aoiConditions/train1P1Block1.xlsx,aoiConditions/train1P1Block1Test.xlsx,,,,,,,,,,,,,,,,,,,,,,,,,,,,,,,,,,,,,,,,,,,,,,,,,,,,,,,,,,,
,0,0,0,0,1,trainingaudio/23_patoko1.wav,pngimages/23_lemon.png,Omer Alrefaai,1048,2020-11-23_17h03.35.578,experiment,2020.1.3,Win32,60,,,,,,,,,,,,,,,,,,,,,,,,,,,,,,,,,,,,,,,,,,,,,,,,,,,,,,,,,,,,,,,,,,,,,,,,,,,,,,,,,,,,,
,,,,,,,,Omer Alrefaai,1048,2020-11-23_17h03.35.578,experiment,2020.1.3,Win32,60,,0,0,0,0,1,,,,,,,,,,,,,,,,,,,,,,,,,,,,,,,,,,,,,,,,,,,,,,,,,,,,,,,,,,,,,,,,,,,,,,,,,,,,,,,
,,,,,,,,Omer Alrefaai,1048,2020-11-23_17h03.35.578,experiment,2020.1.3,Win32,60,,,,,,,j,2.236755,0,0,0,0,1,trainingaudio/23_patoko1.wav,pngimages/23_lemon.png,train1P1,pngimages/22_egg.png,0.5,-0.5,,,,,,,,,,,,,,,,,,,,,,,,,,,,,,,,,,,,,,,,,,,,,,,,,,,,,,,,,,,,,,,,,,
,,,,,,,,Omer Alrefaai,1048,2020-11-23_17h03.35.578,experiment,2020.1.3,Win32,60,,,,,,,,,,,,,,,,,,,,0,1,1,1,1,aoiConditions/train1P1Block2.xlsx,aoiConditions/train1P1Block2Test.xlsx,,,,,,,,,,,,,,,,,,,,,,,,,,,,,,,,,,,,,,,,,,,,,,,,,,,,,,,,,,,
,0,0,0,0,1,trainingaudio/25_tapapi1.wav,pngimages/25_apple.png,Omer Alrefaai,1048,2020-11-23_17h03.35.578,experiment,2020.1.3,Win32,60,,,,,,,,,,,,,,,,,,,,,,,,,,,,,,,,,,,,,,,,,,,,,,,,,,,,,,,,,,,,,,,,,,,,,,,,,,,,,,,,,,,,,
,,,,,,,,Omer Alrefaai,1048,2020-11-23_17h03.35.578,experiment,2020.1.3,Win32,60,,0,0,0,0,1,,,,,,,,,,,,,,,,,,,,,,,,,,,,,,,,,,,,,,,,,,,,,,,,,,,,,,,,,,,,,,,,,,,,,,,,,,,,,,,
,,,,,,,,Omer Alrefaai,1048,2020-11-23_17h03.35.578,experiment,2020.1.3,Win32,60,,,,,,,j,1.01515,0,0,0,0,1,trainingaudio/26_kapako1.wav,pngimages/26_pineapple.png,train1P1,pngimages/25_apple.png,0.5,-0.5,,,,,,,,,,,,,,,,,,,,,,,,,,,,,,,,,,,,,,,,,,,,,,,,,,,,,,,,,,,,,,,,,,
,,,,,,,,Omer Alrefaai,1048,2020-11-23_17h03.35.578,experiment,2020.1.3,Win32,60,,,,,,,,,,,,,,,,,,,,0,2,2,2,1,aoiConditions/train1P1Block3.xlsx,aoiConditions/train1P1Block3Test.xlsx,,,,,,,,,,,,,,,,,,,,,,,,,,,,,,,,,,,,,,,,,,,,,,,,,,,,,,,,,,,
,0,0,0,0,1,trainingaudio/17_kotako2.wav,pngimages/17_cracker.png,Omer Alrefaai,1048,2020-11-23_17h03.35.578,experiment,2020.1.3,Win32,60,,,,,,,,,,,,,,,,,,,,,,,,,,,,,,,,,,,,,,,,,,,,,,,,,,,,,,,,,,,,,,,,,,,,,,,,,,,,,,,,,,,,,
,,,,,,,,Omer Alrefaai,1048,2020-11-23_17h03.35.578,experiment,2020.1.3,Win32,60,,0,0,0,0,1,,,,,,,,,,,,,,,,,,,,,,,,,,,,,,,,,,,,,,,,,,,,,,,,,,,,,,,,,,,,,,,,,,,,,,,,,,,,,,,
,,,,,,,,Omer Alrefaai,1048,2020-11-23_17h03.35.578,experiment,2020.1.3,Win32,60,,,,,,,j,0.54385,0,0,0,0,1,trainingaudio/18_popata2.wav,pngimages/18_donut.png,train1P1,pngimages/17_cracker.png,0.5,-0.5,,,,,,,,,,,,,,,,,,,,,,,,,,,,,,,,,,,,,,,,,,,,,,,,,,,,,,,,,,,,,,,,,,
,,,,,,,,Omer Alrefaai,1048,2020-11-23_17h03.35.578,experiment,2020.1.3,Win32,60,,,,,,,,,,,,,,,,,,,,0,3,3,3,1,aoiConditions/train1P1Block4.xlsx,aoiConditions/train1P1Block4Test.xlsx,,,,,,,,,,,,,,,,,,,,,,,,,,,,,,,,,,,,,,,,,,,,,,,,,,,,,,,,,,,
,0,0,0,0,1,trainingaudio/09_tipata2.wav,pngimages/09_plane.png,Omer Alrefaai,1048,2020-11-23_17h03.35.578,experiment,2020.1.3,Win32,60,,,,,,,,,,,,,,,,,,,,,,,,,,,,,,,,,,,,,,,,,,,,,,,,,,,,,,,,,,,,,,,,,,,,,,,,,,,,,,,,,,,,,
,,,,,,,,Omer Alrefaai,1048,2020-11-23_17h03.35.578,experiment,2020.1.3,Win32,60,,0,0,0,0,1,,,,,,,,,,,,,,,,,,,,,,,,,,,,,,,,,,,,,,,,,,,,,,,,,,,,,,,,,,,,,,,,,,,,,,,,,,,,,,,
,,,,,,,,Omer Alrefaai,1048,2020-11-23_17h03.35.578,experiment,2020.1.3,Win32,60,,,,,,,j,1.57287,0,0,0,0,1,trainingaudio/24_takopa1.wav,pngimages/24_banana.png,train1P1,pngimages/09_plane.png,0.5,-0.5,,,,,,,,,,,,,,,,,,,,,,,,,,,,,,,,,,,,,,,,,,,,,,,,,,,,,,,,,,,,,,,,,,
,,,,,,,,Omer Alrefaai,1048,2020-11-23_17h03.35.578,experiment,2020.1.3,Win32,60,,,,,,,,,,,,,,,,,,,,0,4,4,4,1,aoiConditions/train1P1Block5.xlsx,aoiConditions/train1P1Block5Test.xlsx,,,,,,,,,,,,,,,,,,,,,,,,,,,,,,,,,,,,,,,,,,,,,,,,,,,,,,,,,,,
,0,0,0,0,1,trainingaudio/08_tipako2.wav,pngimages/08_bell.png,Omer Alrefaai,1048,2020-11-23_17h03.35.578,experiment,2020.1.3,Win32,60,,,,,,,,,,,,,,,,,,,,,,,,,,,,,,,,,,,,,,,,,,,,,,,,,,,,,,,,,,,,,,,,,,,,,,,,,,,,,,,,,,,,,
,,,,,,,,Omer Alrefaai,1048,2020-11-23_17h03.35.578,experiment,2020.1.3,Win32,60,,0,0,0,0,1,,,,,,,,,,,,,,,,,,,,,,,,,,,,,,,,,,,,,,,,,,,,,,,,,,,,,,,,,,,,,,,,,,,,,,,,,,,,,,,
,,,,,,,,Omer Alrefaai,1048,2020-11-23_17h03.35.578,experiment,2020.1.3,Win32,60,,,,,,,f,1.129695,0,0,0,0,1,trainingaudio/08_tipako2.wav,pngimages/08_bell.png,train1P1,pngimages/03_box.png,-0.5,0.5,,,,,,,,,,,,,,,,,,,,,,,,,,,,,,,,,,,,,,,,,,,,,,,,,,,,,,,,,,,,,,,,,,
,,,,,,,,Omer Alrefaai,1048,2020-11-23_17h03.35.578,experiment,2020.1.3,Win32,60,,,,,,,,,,,,,,,,,,,,0,5,5,5,1,aoiConditions/train1P1Block6.xlsx,aoiConditions/train1P1Block6Test.xlsx,,,,,,,,,,,,,,,,,,,,,,,,,,,,,,,,,,,,,,,,,,,,,,,,,,,,,,,,,,,
,0,0,0,0,1,trainingaudio/10_tokiti1.wav,pngimages/10_backpack.png,Omer Alrefaai,1048,2020-11-23_17h03.35.578,experiment,2020.1.3,Win32,60,,,,,,,,,,,,,,,,,,,,,,,,,,,,,,,,,,,,,,,,,,,,,,,,,,,,,,,,,,,,,,,,,,,,,,,,,,,,,,,,,,,,,
,,,,,,,,Omer Alrefaai,1048,2020-11-23_17h03.35.578,experiment,2020.1.3,Win32,60,,0,0,0,0,1,,,,,,,,,,,,,,,,,,,,,,,,,,,,,,,,,,,,,,,,,,,,,,,,,,,,,,,,,,,,,,,,,,,,,,,,,,,,,,,
,,,,,,,,Omer Alrefaai,1048,2020-11-23_17h03.35.578,experiment,2020.1.3,Win32,60,,,,,,,j,1.0702,0,0,0,0,1,trainingaudio/13_kopopi1.wav,pngimages/13_toast.png,train1P1,pngimages/10_backpack.png,0.5,-0.5,,,,,,,,,,,,,,,,,,,,,,,,,,,,,,,,,,,,,,,,,,,,,,,,,,,,,,,,,,,,,,,,,,
,,,,,,,,Omer Alrefaai,1048,2020-11-23_17h03.35.578,experiment,2020.1.3,Win32,60,,,,,,,,,,,,,,,,,,,,0,6,6,6,1,aoiConditions/train1P1Block7.xlsx,aoiConditions/train1P1Block7Test.xlsx,,,,,,,,,,,,,,,,,,,,,,,,,,,,,,,,,,,,,,,,,,,,,,,,,,,,,,,,,,,
,0,0,0,0,1,trainingaudio/04_kitoti2.wav,pngimages/04_ladder.png,Omer Alrefaai,1048,2020-11-23_17h03.35.578,experiment,2020.1.3,Win32,60,,,,,,,,,,,,,,,,,,,,,,,,,,,,,,,,,,,,,,,,,,,,,,,,,,,,,,,,,,,,,,,,,,,,,,,,,,,,,,,,,,,,,
,,,,,,,,Omer Alrefaai,1048,2020-11-23_17h03.35.578,experiment,2020.1.3,Win32,60,,0,0,0,0,1,,,,,,,,,,,,,,,,,,,,,,,,,,,,,,,,,,,,,,,,,,,,,,,,,,,,,,,,,,,,,,,,,,,,,,,,,,,,,,,
,,,,,,,,Omer Alrefaai,1048,2020-11-23_17h03.35.578,experiment,2020.1.3,Win32,60,,,,,,,f,1.151825,0,0,0,0,1,trainingaudio/12_pokika3.wav,pngimages/12_pie.png,train1P1,pngimages/04_ladder.png,-0.5,0.5,,,,,,,,,,,,,,,,,,,,,,,,,,,,,,,,,,,,,,,,,,,,,,,,,,,,,,,,,,,,,,,,,,
,,,,,,,,Omer Alrefaai,1048,2020-11-23_17h03.35.578,experiment,2020.1.3,Win32,60,,,,,,,,,,,,,,,,,,,,0,7,7,7,1,aoiConditions/train1P1Block8.xlsx,aoiConditions/train1P1Block8Test.xlsx,,,,,,,,,,,,,,,,,,,,,,,,,,,,,,,,,,,,,,,,,,,,,,,,,,,,,,,,,,,
,0,0,0,0,1,trainingaudio/07_pitapi2.wav,pngimages/07_suitcase.png,Omer Alrefaai,1048,2020-11-23_17h03.35.578,experiment,2020.1.3,Win32,60,,,,,,,,,,,,,,,,,,,,,,,,,,,,,,,,,,,,,,,,,,,,,,,,,,,,,,,,,,,,,,,,,,,,,,,,,,,,,,,,,,,,,
,,,,,,,,Omer Alrefaai,1048,2020-11-23_17h03.35.578,experiment,2020.1.3,Win32,60,,0,0,0,0,1,,,,,,,,,,,,,,,,,,,,,,,,,,,,,,,,,,,,,,,,,,,,,,,,,,,,,,,,,,,,,,,,,,,,,,,,,,,,,,,
,,,,,,,,Omer Alrefaai,1048,2020-11-23_17h03.35.578,experiment,2020.1.3,Win32,60,,,,,,,f,1.290675,0,0,0,0,1,trainingaudio/02_pitito3.wav,pngimages/02_pallet.png,train1P1,pngimages/07_suitcase.png,-0.5,0.5,,,,,,,,,,,,,,,,,,,,,,,,,,,,,,,,,,,,,,,,,,,,,,,,,,,,,,,,,,,,,,,,,,
,,,,,,,,Omer Alrefaai,1048,2020-11-23_17h03.35.578,experiment,2020.1.3,Win32,60,,,,,,,,,,,,,,,,,,,,0,8,8,8,1,aoiConditions/train1P1Block9.xlsx,aoiConditions/train1P1Block9Test.xlsx,,,,,,,,,,,,,,,,,,,,,,,,,,,,,,,,,,,,,,,,,,,,,,,,,,,,,,,,,,,
,0,0,0,0,1,trainingaudio/01_kitipi1.wav,pngimages/01_gift.png,Omer Alrefaai,1048,2020-11-23_17h03.35.578,experiment,2020.1.3,Win32,60,,,,,,,,,,,,,,,,,,,,,,,,,,,,,,,,,,,,,,,,,,,,,,,,,,,,,,,,,,,,,,,,,,,,,,,,,,,,,,,,,,,,,
,,,,,,,,Omer Alrefaai,1048,2020-11-23_17h03.35.578,experiment,2020.1.3,Win32,60,,0,0,0,0,1,,,,,,,,,,,,,,,,,,,,,,,,,,,,,,,,,,,,,,,,,,,,,,,,,,,,,,,,,,,,,,,,,,,,,,,,,,,,,,,
,,,,,,,,Omer Alrefaai,1048,2020-11-23_17h03.35.578,experiment,2020.1.3,Win32,60,,,,,,,f,1.20894,0,0,0,0,1,trainingaudio/01_kitipi1.wav,pngimages/01_gift.png,train1P1,pngimages/21_cheese.png,-0.5,0.5,,,,,,,,,,,,,,,,,,,,,,,,,,,,,,,,,,,,,,,,,,,,,,,,,,,,,,,,,,,,,,,,,,
,,,,,,,,Omer Alrefaai,1048,2020-11-23_17h03.35.578,experiment,2020.1.3,Win32,60,,,,,,,,,,,,,,,,,,,,0,9,9,9,1,aoiConditions/train1P1Block10.xlsx,aoiConditions/train1P1Block10Test.xlsx,,,,,,,,,,,,,,,,,,,,,,,,,,,,,,,,,,,,,,,,,,,,,,,,,,,,,,,,,,,
,0,0,0,0,1,trainingaudio/27_pakapa1.wav,pngimages/27_kiwi.png,Omer Alrefaai,1048,2020-11-23_17h03.35.578,experiment,2020.1.3,Win32,60,,,,,,,,,,,,,,,,,,,,,,,,,,,,,,,,,,,,,,,,,,,,,,,,,,,,,,,,,,,,,,,,,,,,,,,,,,,,,,,,,,,,,
,,,,,,,,Omer Alrefaai,1048,2020-11-23_17h03.35.578,experiment,2020.1.3,Win32,60,,0,0,0,0,1,,,,,,,,,,,,,,,,,,,,,,,,,,,,,,,,,,,,,,,,,,,,,,,,,,,,,,,,,,,,,,,,,,,,,,,,,,,,,,,
,,,,,,,,Omer Alrefaai,1048,2020-11-23_17h03.35.578,experiment,2020.1.3,Win32,60,,,,,,,j,2.29894,0,0,0,0,1,trainingaudio/27_pakapa1.wav,pngimages/27_kiwi.png,train1P1,pngimages/15_barrel.png,0.5,-0.5,,,,,,,,,,,,,,,,,,,,,,,,,,,,,,,,,,,,,,,,,,,,,,,,,,,,,,,,,,,,,,,,,,
,,,,,,,,Omer Alrefaai,1048,2020-11-23_17h03.35.578,experiment,2020.1.3,Win32,60,,,,,,,,,,,,,,,,,,,,0,10,10,10,1,aoiConditions/train1P1Block11.xlsx,aoiConditions/train1P1Block11Test.xlsx,,,,,,,,,,,,,,,,,,,,,,,,,,,,,,,,,,,,,,,,,,,,,,,,,,,,,,,,,,,
,0,0,0,0,1,trainingaudio/05_titopo2.wav,pngimages/05_megaphone.png,Omer Alrefaai,1048,2020-11-23_17h03.35.578,experiment,2020.1.3,Win32,60,,,,,,,,,,,,,,,,,,,,,,,,,,,,,,,,,,,,,,,,,,,,,,,,,,,,,,,,,,,,,,,,,,,,,,,,,,,,,,,,,,,,,
,,,,,,,,Omer Alrefaai,1048,2020-11-23_17h03.35.578,experiment,2020.1.3,Win32,60,,0,0,0,0,1,,,,,,,,,,,,,,,,,,,,,,,,,,,,,,,,,,,,,,,,,,,,,,,,,,,,,,,,,,,,,,,,,,,,,,,,,,,,,,,
,,,,,,,,Omer Alrefaai,1048,2020-11-23_17h03.35.578,experiment,2020.1.3,Win32,60,,,,,,,j,1.603255,0,0,0,0,1,trainingaudio/16_kokapi2.wav,pngimages/16_icecream.png,train1P1,pngimages/05_megaphone.png,0.5,-0.5,,,,,,,,,,,,,,,,,,,,,,,,,,,,,,,,,,,,,,,,,,,,,,,,,,,,,,,,,,,,,,,,,,
,,,,,,,,Omer Alrefaai,1048,2020-11-23_17h03.35.578,experiment,2020.1.3,Win32,60,,,,,,,,,,,,,,,,,,,,0,11,11,11,1,aoiConditions/train1P1Block12.xlsx,aoiConditions/train1P1Block12Test.xlsx,,,,,,,,,,,,,,,,,,,,,,,,,,,,,,,,,,,,,,,,,,,,,,,,,,,,,,,,,,,
,0,0,0,0,1,trainingaudio/11_tokiko1.wav,pngimages/11_compass.png,Omer Alrefaai,1048,2020-11-23_17h03.35.578,experiment,2020.1.3,Win32,60,,,,,,,,,,,,,,,,,,,,,,,,,,,,,,,,,,,,,,,,,,,,,,,,,,,,,,,,,,,,,,,,,,,,,,,,,,,,,,,,,,,,,
,,,,,,,,Omer Alrefaai,1048,2020-11-23_17h03.35.578,experiment,2020.1.3,Win32,60,,0,0,0,0,1,,,,,,,,,,,,,,,,,,,,,,,,,,,,,,,,,,,,,,,,,,,,,,,,,,,,,,,,,,,,,,,,,,,,,,,,,,,,,,,
,,,,,,,,Omer Alrefaai,1048,2020-11-23_17h03.35.578,experiment,2020.1.3,Win32,60,,,,,,,j,1.43612,0,0,0,0,1,trainingaudio/20_tatito1.wav,pngimages/20_pizza.png,train1P1,pngimages/11_compass.png,0.5,-0.5,,,,,,,,,,,,,,,,,,,,,,,,,,,,,,,,,,,,,,,,,,,,,,,,,,,,,,,,,,,,,,,,,,
,,,,,,,,Omer Alrefaai,1048,2020-11-23_17h03.35.578,experiment,2020.1.3,Win32,60,,,,,,,,,,,,,,,,,,,,0,12,12,12,1,aoiConditions/train1P1Block13.xlsx,aoiConditions/train1P1Block13Test.xlsx,,,,,,,,,,,,,,,,,,,,,,,,,,,,,,,,,,,,,,,,,,,,,,,,,,,,,,,,,,,
,0,0,0,0,1,trainingaudio/14_pokoto1.wav,pngimages/14_coffee.png,Omer Alrefaai,1048,2020-11-23_17h03.35.578,experiment,2020.1.3,Win32,60,,,,,,,,,,,,,,,,,,,,,,,,,,,,,,,,,,,,,,,,,,,,,,,,,,,,,,,,,,,,,,,,,,,,,,,,,,,,,,,,,,,,,
,,,,,,,,Omer Alrefaai,1048,2020-11-23_17h03.35.578,experiment,2020.1.3,Win32,60,,0,0,0,0,1,,,,,,,,,,,,,,,,,,,,,,,,,,,,,,,,,,,,,,,,,,,,,,,,,,,,,,,,,,,,,,,,,,,,,,,,,,,,,,,
,,,,,,,,Omer Alrefaai,1048,2020-11-23_17h03.35.578,experiment,2020.1.3,Win32,60,,,,,,,j,1.252685,0,0,0,0,1,trainingaudio/14_pokoto1.wav,pngimages/14_coffee.png,train1P1,pngimages/94_house.png,0.5,-0.5,,,,,,,,,,,,,,,,,,,,,,,,,,,,,,,,,,,,,,,,,,,,,,,,,,,,,,,,,,,,,,,,,,
,,,,,,,,Omer Alrefaai,1048,2020-11-23_17h03.35.578,experiment,2020.1.3,Win32,60,,,,,,,,,,,,,,,,,,,,,,,,,,,0,0,0,0,1,aoiConditions/train1P1LoopCondition.xlsx,two,,,,,,,,,,,,,,,,,,,,,,,,,,,,,,,,,,,,,,,,,,,,,,,,,,,,
right,0,0,0,0,1,trainingaudio/09_tipata2.wav,pngimages/09_plane.png,Omer Alrefaai,1048,2020-11-23_17h03.35.578,experiment,2020.1.3,Win32,60,,,,,,,,,,,,,,,,,,,,,,,,,,,,,,,,,,7.312835,,,,,,,,,,,,,,,,,,,,,,,,,,,,,,,,,,,,,,,,,,,,,,,,,,,
,0,1,1,1,1,trainingaudio/15_kopota3.wav,pngimages/15_barrel.png,Omer Alrefaai,1048,2020-11-23_17h03.35.578,experiment,2020.1.3,Win32,60,,,,,,,,,,,,,,,,,,,,,,,,,,,,,,,,,,,,,,,,,,,,,,,,,,,,,,,,,,,,,,,,,,,,,,,,,,,,,,,,,,,,,
,0,2,2,2,1,trainingaudio/14_pokoto1.wav,pngimages/14_coffee.png,Omer Alrefaai,1048,2020-11-23_17h03.35.578,experiment,2020.1.3,Win32,60,,,,,,,,,,,,,,,,,,,,,,,,,,,,,,,,,,,,,,,,,,,,,,,,,,,,,,,,,,,,,,,,,,,,,,,,,,,,,,,,,,,,,
,,,,,,,,Omer Alrefaai,1048,2020-11-23_17h03.35.578,experiment,2020.1.3,Win32,60,right,0,0,0,0,1,,,,,,,,,,,,,,,,,,,,,,,,,,,,,7.137055,,,,,,,,,,,,,,,,,,,,,,,,,,,,,,,,,,,,,,,,,,,,,,,,,,
,,,,,,,,Omer Alrefaai,1048,2020-11-23_17h03.35.578,experiment,2020.1.3,Win32,60,,,,,,,j,1.2781,0,0,0,0,1,trainingaudio/09_tipata2.wav,pngimages/09_plane.png,train1P2,pngimages/19_burger.png,0.5,-0.5,,,,,,,,,,,,,,,,,,,,,,,,,,,,,,,,,,,,,,,,,,,,,,,,,,,,,,,,,,,,,,,,,,
,,,,,,,,Omer Alrefaai,1048,2020-11-23_17h03.35.578,experiment,2020.1.3,Win32,60,,,,,,,f,3.25521,0,1,1,1,1,trainingaudio/15_kopota3.wav,pngimages/15_barrel.png,train1P2,pngimages/14_coffee.png,-0.5,0.5,,,,,,,,,,,,,,,,,,,,,,,,,,,,,,,,,,,,,,,,,,,,,,,,,,,,,,,,,,,,,,,,,,
,,,,,,,,Omer Alrefaai,1048,2020-11-23_17h03.35.578,experiment,2020.1.3,Win32,60,,,,,,,,,,,,,,,,,,,,0,0,0,0,1,aoiConditions/train1P2Block1.xlsx,aoiConditions/train1P2Block1Test.xlsx,,,,,,,,,,,,,,,,,,,,,,,,,,,,,,,,,,,,,,,,,,,,,,,,,,,,,,,,,,,
,0,0,0,0,1,trainingaudio/16_kokapi2.wav,pngimages/16_icecream.png,Omer Alrefaai,1048,2020-11-23_17h03.35.578,experiment,2020.1.3,Win32,60,,,,,,,,,,,,,,,,,,,,,,,,,,,,,,,,,,,,,,,,,,,,,,,,,,,,,,,,,,,,,,,,,,,,,,,,,,,,,,,,,,,,,
,0,1,1,1,1,trainingaudio/26_kapako1.wav,pngimages/26_pineapple.png,Omer Alrefaai,1048,2020-11-23_17h03.35.578,experiment,2020.1.3,Win32,60,,,,,,,,,,,,,,,,,,,,,,,,,,,,,,,,,,,,,,,,,,,,,,,,,,,,,,,,,,,,,,,,,,,,,,,,,,,,,,,,,,,,,
,0,2,2,2,1,trainingaudio/17_kotako2.wav,pngimages/17_cracker.png,Omer Alrefaai,1048,2020-11-23_17h03.35.578,experiment,2020.1.3,Win32,60,,,,,,,,,,,,,,,,,,,,,,,,,,,,,,,,,,,,,,,,,,,,,,,,,,,,,,,,,,,,,,,,,,,,,,,,,,,,,,,,,,,,,
,,,,,,,,Omer Alrefaai,1048,2020-11-23_17h03.35.578,experiment,2020.1.3,Win32,60,,0,0,0,0,1,,,,,,,,,,,,,,,,,,,,,,,,,,,,,,,,,,,,,,,,,,,,,,,,,,,,,,,,,,,,,,,,,,,,,,,,,,,,,,,
,,,,,,,,Omer Alrefaai,1048,2020-11-23_17h03.35.578,experiment,2020.1.3,Win32,60,,,,,,,f,2.14822,0,0,0,0,1,trainingaudio/11_tokiko1.wav,pngimages/11_compass.png,train1P2,pngimages/26_pineapple.png,-0.5,0.5,,,,,,,,,,,,,,,,,,,,,,,,,,,,,,,,,,,,,,,,,,,,,,,,,,,,,,,,,,,,,,,,,,
,,,,,,,,Omer Alrefaai,1048,2020-11-23_17h03.35.578,experiment,2020.1.3,Win32,60,,,,,,,f,1.32288,0,1,1,1,1,trainingaudio/17_kotako2.wav,pngimages/17_cracker.png,train1P2,pngimages/16_icecream.png,-0.5,0.5,,,,,,,,,,,,,,,,,,,,,,,,,,,,,,,,,,,,,,,,,,,,,,,,,,,,,,,,,,,,,,,,,,
,,,,,,,,Omer Alrefaai,1048,2020-11-23_17h03.35.578,experiment,2020.1.3,Win32,60,,,,,,,,,,,,,,,,,,,,0,1,1,1,1,aoiConditions/train1P2Block2.xlsx,aoiConditions/train1P2Block2Test.xlsx,,,,,,,,,,,,,,,,,,,,,,,,,,,,,,,,,,,,,,,,,,,,,,,,,,,,,,,,,,,
,0,0,0,0,1,trainingaudio/08_tipako2.wav,pngimages/08_bell.png,Omer Alrefaai,1048,2020-11-23_17h03.35.578,experiment,2020.1.3,Win32,60,,,,,,,,,,,,,,,,,,,,,,,,,,,,,,,,,,,,,,,,,,,,,,,,,,,,,,,,,,,,,,,,,,,,,,,,,,,,,,,,,,,,,
,0,1,1,1,1,trainingaudio/07_pitapi2.wav,pngimages/07_suitcase.png,Omer Alrefaai,1048,2020-11-23_17h03.35.578,experiment,2020.1.3,Win32,60,,,,,,,,,,,,,,,,,,,,,,,,,,,,,,,,,,,,,,,,,,,,,,,,,,,,,,,,,,,,,,,,,,,,,,,,,,,,,,,,,,,,,
,0,2,2,2,1,trainingaudio/03_kikita3.wav,pngimages/03_box.png,Omer Alrefaai,1048,2020-11-23_17h03.35.578,experiment,2020.1.3,Win32,60,,,,,,,,,,,,,,,,,,,,,,,,,,,,,,,,,,,,,,,,,,,,,,,,,,,,,,,,,,,,,,,,,,,,,,,,,,,,,,,,,,,,,
,,,,,,,,Omer Alrefaai,1048,2020-11-23_17h03.35.578,experiment,2020.1.3,Win32,60,,0,0,0,0,1,,,,,,,,,,,,,,,,,,,,,,,,,,,,,,,,,,,,,,,,,,,,,,,,,,,,,,,,,,,,,,,,,,,,,,,,,,,,,,,
,,,,,,,,Omer Alrefaai,1048,2020-11-23_17h03.35.578,experiment,2020.1.3,Win32,60,,,,,,,j,2.96633,0,0,0,0,1,trainingaudio/07_pitapi2.wav,pngimages/07_suitcase.png,train1P2,pngimages/08_bell.png,0.5,-0.5,,,,,,,,,,,,,,,,,,,,,,,,,,,,,,,,,,,,,,,,,,,,,,,,,,,,,,,,,,,,,,,,,,
,,,,,,,,Omer Alrefaai,1048,2020-11-23_17h03.35.578,experiment,2020.1.3,Win32,60,,,,,,,f,1.254325,0,1,1,1,1,trainingaudio/03_kikita3.wav,pngimages/03_box.png,train1P2,pngimages/01_gift.png,-0.5,0.5,,,,,,,,,,,,,,,,,,,,,,,,,,,,,,,,,,,,,,,,,,,,,,,,,,,,,,,,,,,,,,,,,,
,,,,,,,,Omer Alrefaai,1048,2020-11-23_17h03.35.578,experiment,2020.1.3,Win32,60,,,,,,,,,,,,,,,,,,,,0,2,2,2,1,aoiConditions/train1P2Block3.xlsx,aoiConditions/train1P2Block3Test.xlsx,,,,,,,,,,,,,,,,,,,,,,,,,,,,,,,,,,,,,,,,,,,,,,,,,,,,,,,,,,,
,0,0,0,0,1,trainingaudio/12_pokika3.wav,pngimages/12_pie.png,Omer Alrefaai,1048,2020-11-23_17h03.35.578,experiment,2020.1.3,Win32,60,,,,,,,,,,,,,,,,,,,,,,,,,,,,,,,,,,,,,,,,,,,,,,,,,,,,,,,,,,,,,,,,,,,,,,,,,,,,,,,,,,,,,
,0,1,1,1,1,trainingaudio/22_kakoki1.wav,pngimages/22_egg.png,Omer Alrefaai,1048,2020-11-23_17h03.35.578,experiment,2020.1.3,Win32,60,,,,,,,,,,,,,,,,,,,,,,,,,,,,,,,,,,,,,,,,,,,,,,,,,,,,,,,,,,,,,,,,,,,,,,,,,,,,,,,,,,,,,
,0,2,2,2,1,trainingaudio/04_kitoti2.wav,pngimages/04_ladder.png,Omer Alrefaai,1048,2020-11-23_17h03.35.578,experiment,2020.1.3,Win32,60,,,,,,,,,,,,,,,,,,,,,,,,,,,,,,,,,,,,,,,,,,,,,,,,,,,,,,,,,,,,,,,,,,,,,,,,,,,,,,,,,,,,,
,,,,,,,,Omer Alrefaai,1048,2020-11-23_17h03.35.578,experiment,2020.1.3,Win32,60,,0,0,0,0,1,,,,,,,,,,,,,,,,,,,,,,,,,,,,,,,,,,,,,,,,,,,,,,,,,,,,,,,,,,,,,,,,,,,,,,,,,,,,,,,
,,,,,,,,Omer Alrefaai,1048,2020-11-23_17h03.35.578,experiment,2020.1.3,Win32,60,,,,,,,j,2.163425,0,0,0,0,1,trainingaudio/04_kitoti2.wav,pngimages/04_ladder.png,train1P2,pngimages/12_pie.png,0.5,-0.5,,,,,,,,,,,,,,,,,,,,,,,,,,,,,,,,,,,,,,,,,,,,,,,,,,,,,,,,,,,,,,,,,,
,,,,,,,,Omer Alrefaai,1048,2020-11-23_17h03.35.578,experiment,2020.1.3,Win32,60,,,,,,,f,1.075215,0,1,1,1,1,trainingaudio/22_kakoki1.wav,pngimages/22_egg.png,train1P2,pngimages/02_pallet.png,-0.5,0.5,,,,,,,,,,,,,,,,,,,,,,,,,,,,,,,,,,,,,,,,,,,,,,,,,,,,,,,,,,,,,,,,,,
,,,,,,,,Omer Alrefaai,1048,2020-11-23_17h03.35.578,experiment,2020.1.3,Win32,60,,,,,,,,,,,,,,,,,,,,0,3,3,3,1,aoiConditions/train1P2Block4.xlsx,aoiConditions/train1P2Block4Test.xlsx,,,,,,,,,,,,,,,,,,,,,,,,,,,,,,,,,,,,,,,,,,,,,,,,,,,,,,,,,,,
,0,0,0,0,1,trainingaudio/23_patoko1.wav,pngimages/23_lemon.png,Omer Alrefaai,1048,2020-11-23_17h03.35.578,experiment,2020.1.3,Win32,60,,,,,,,,,,,,,,,,,,,,,,,,,,,,,,,,,,,,,,,,,,,,,,,,,,,,,,,,,,,,,,,,,,,,,,,,,,,,,,,,,,,,,
,0,1,1,1,1,trainingaudio/10_tokiti1.wav,pngimages/10_backpack.png,Omer Alrefaai,1048,2020-11-23_17h03.35.578,experiment,2020.1.3,Win32,60,,,,,,,,,,,,,,,,,,,,,,,,,,,,,,,,,,,,,,,,,,,,,,,,,,,,,,,,,,,,,,,,,,,,,,,,,,,,,,,,,,,,,
,0,2,2,2,1,trainingaudio/20_tatito1.wav,pngimages/20_pizza.png,Omer Alrefaai,1048,2020-11-23_17h03.35.578,experiment,2020.1.3,Win32,60,,,,,,,,,,,,,,,,,,,,,,,,,,,,,,,,,,,,,,,,,,,,,,,,,,,,,,,,,,,,,,,,,,,,,,,,,,,,,,,,,,,,,
,,,,,,,,Omer Alrefaai,1048,2020-11-23_17h03.35.578,experiment,2020.1.3,Win32,60,,0,0,0,0,1,,,,,,,,,,,,,,,,,,,,,,,,,,,,,,,,,,,,,,,,,,,,,,,,,,,,,,,,,,,,,,,,,,,,,,,,,,,,,,,
,,,,,,,,Omer Alrefaai,1048,2020-11-23_17h03.35.578,experiment,2020.1.3,Win32,60,,,,,,,j,3.24573,0,0,0,0,1,trainingaudio/10_tokiti1.wav,pngimages/10_backpack.png,train1P2,pngimages/23_lemon.png,0.5,-0.5,,,,,,,,,,,,,,,,,,,,,,,,,,,,,,,,,,,,,,,,,,,,,,,,,,,,,,,,,,,,,,,,,,
,,,,,,,,Omer Alrefaai,1048,2020-11-23_17h03.35.578,experiment,2020.1.3,Win32,60,,,,,,,f,1.28126,0,1,1,1,1,trainingaudio/25_tapapi1.wav,pngimages/25_apple.png,train1P2,pngimages/20_pizza.png,-0.5,0.5,,,,,,,,,,,,,,,,,,,,,,,,,,,,,,,,,,,,,,,,,,,,,,,,,,,,,,,,,,,,,,,,,,
,,,,,,,,Omer Alrefaai,1048,2020-11-23_17h03.35.578,experiment,2020.1.3,Win32,60,,,,,,,,,,,,,,,,,,,,0,4,4,4,1,aoiConditions/train1P2Block5.xlsx,aoiConditions/train1P2Block5Test.xlsx,,,,,,,,,,,,,,,,,,,,,,,,,,,,,,,,,,,,,,,,,,,,,,,,,,,,,,,,,,,
,0,0,0,0,1,trainingaudio/18_popata2.wav,pngimages/18_donut.png,Omer Alrefaai,1048,2020-11-23_17h03.35.578,experiment,2020.1.3,Win32,60,,,,,,,,,,,,,,,,,,,,,,,,,,,,,,,,,,,,,,,,,,,,,,,,,,,,,,,,,,,,,,,,,,,,,,,,,,,,,,,,,,,,,
,0,1,1,1,1,trainingaudio/06_titoka3.wav,pngimages/06_tent.png,Omer Alrefaai,1048,2020-11-23_17h03.35.578,experiment,2020.1.3,Win32,60,,,,,,,,,,,,,,,,,,,,,,,,,,,,,,,,,,,,,,,,,,,,,,,,,,,,,,,,,,,,,,,,,,,,,,,,,,,,,,,,,,,,,
,0,2,2,2,1,trainingaudio/21_papika1.wav,pngimages/21_cheese.png,Omer Alrefaai,1048,2020-11-23_17h03.35.578,experiment,2020.1.3,Win32,60,,,,,,,,,,,,,,,,,,,,,,,,,,,,,,,,,,,,,,,,,,,,,,,,,,,,,,,,,,,,,,,,,,,,,,,,,,,,,,,,,,,,,
,,,,,,,,Omer Alrefaai,1048,2020-11-23_17h03.35.578,experiment,2020.1.3,Win32,60,,0,0,0,0,1,,,,,,,,,,,,,,,,,,,,,,,,,,,,,,,,,,,,,,,,,,,,,,,,,,,,,,,,,,,,,,,,,,,,,,,,,,,,,,,
,,,,,,,,Omer Alrefaai,1048,2020-11-23_17h03.35.578,experiment,2020.1.3,Win32,60,,,,,,,j,0.924615,0,0,0,0,1,trainingaudio/21_papika1.wav,pngimages/21_cheese.png,train1P2,pngimages/18_donut.png,-0.5,0.5,,,,,,,,,,,,,,,,,,,,,,,,,,,,,,,,,,,,,,,,,,,,,,,,,,,,,,,,,,,,,,,,,,
,,,,,,,,Omer Alrefaai,1048,2020-11-23_17h03.35.578,experiment,2020.1.3,Win32,60,,,,,,,f,1.56144,0,1,1,1,1,trainingaudio/06_titoka3.wav,pngimages/06_tent.png,train1P2,pngimages/27_kiwi.png,-0.5,0.5,,,,,,,,,,,,,,,,,,,,,,,,,,,,,,,,,,,,,,,,,,,,,,,,,,,,,,,,,,,,,,,,,,
,,,,,,,,Omer Alrefaai,1048,2020-11-23_17h03.35.578,experiment,2020.1.3,Win32,60,,,,,,,,,,,,,,,,,,,,0,5,5,5,1,aoiConditions/train1P2Block6.xlsx,aoiConditions/train1P2Block6Test.xlsx,,,,,,,,,,,,,,,,,,,,,,,,,,,,,,,,,,,,,,,,,,,,,,,,,,,,,,,,,,,
,0,0,0,0,1,trainingaudio/24_takopa1.wav,pngimages/24_banana.png,Omer Alrefaai,1048,2020-11-23_17h03.35.578,experiment,2020.1.3,Win32,60,,,,,,,,,,,,,,,,,,,,,,,,,,,,,,,,,,,,,,,,,,,,,,,,,,,,,,,,,,,,,,,,,,,,,,,,,,,,,,,,,,,,,
,0,1,1,1,1,trainingaudio/13_kopopi1.wav,pngimages/13_toast.png,Omer Alrefaai,1048,2020-11-23_17h03.35.578,experiment,2020.1.3,Win32,60,,,,,,,,,,,,,,,,,,,,,,,,,,,,,,,,,,,,,,,,,,,,,,,,,,,,,,,,,,,,,,,,,,,,,,,,,,,,,,,,,,,,,
,0,2,2,2,1,trainingaudio/05_titopo2.wav,pngimages/05_megaphone.png,Omer Alrefaai,1048,2020-11-23_17h03.35.578,experiment,2020.1.3,Win32,60,,,,,,,,,,,,,,,,,,,,,,,,,,,,,,,,,,,,,,,,,,,,,,,,,,,,,,,,,,,,,,,,,,,,,,,,,,,,,,,,,,,,,
,,,,,,,,Omer Alrefaai,1048,2020-11-23_17h03.35.578,experiment,2020.1.3,Win32,60,,0,0,0,0,1,,,,,,,,,,,,,,,,,,,,,,,,,,,,,,,,,,,,,,,,,,,,,,,,,,,,,,,,,,,,,,,,,,,,,,,,,,,,,,,
,,,,,,,,Omer Alrefaai,1048,2020-11-23_17h03.35.578,experiment,2020.1.3,Win32,60,,,,,,,j,1.071905,0,0,0,0,1,trainingaudio/94_kipipi1.wav,pngimages/94_house.png,train1P2,pngimages/24_banana.png,0.5,-0.5,,,,,,,,,,,,,,,,,,,,,,,,,,,,,,,,,,,,,,,,,,,,,,,,,,,,,,,,,,,,,,,,,,
,,,,,,,,Omer Alrefaai,1048,2020-11-23_17h03.35.578,experiment,2020.1.3,Win32,60,,,,,,,f,2.17946,0,1,1,1,1,trainingaudio/05_titopo2.wav,pngimages/05_megaphone.png,train1P2,pngimages/13_toast.png,-0.5,0.5,,,,,,,,,,,,,,,,,,,,,,,,,,,,,,,,,,,,,,,,,,,,,,,,,,,,,,,,,,,,,,,,,,
,,,,,,,pngimages/04_ladder.png,Omer Alrefaai,1048,2020-11-23_17h03.35.578,experiment,2020.1.3,Win32,60,,,,,,,,,,,,,,,,test1,,,,,,,,,,,,,,,,,,,,right,2.98706,right,6.78315,f,1.90101,0,0,0,0,1,trainingaudio/04_kitoti1.wav,trainingaudio/04_kitoti2.wav,2,trainingaudio/04_kitoti2.wav,,,,,,,,,,,,,,,,,,,,,,,,,,,,,,,,,,,
,,,,,,,pngimages/12_pie.png,Omer Alrefaai,1048,2020-11-23_17h03.35.578,experiment,2020.1.3,Win32,60,,,,,,,,,,,,,,,,test1,,,,,,,,,,,,,,,,,,,,,,,,j,1.06692,0,1,1,1,1,trainingaudio/12_pokika1.wav,trainingaudio/12_pokika3.wav,2,trainingaudio/12_pokika3.wav,,,,,,,,,,,,,,,,,,,,,,,,,,,,,,,,,,,
,,,,,,,pngimages/02_pallet.png,Omer Alrefaai,1048,2020-11-23_17h03.35.578,experiment,2020.1.3,Win32,60,,,,,,,,,,,,,,,,test1,,,,,,,,,,,,,,,,,,,,,,,,f,2.57726,0,2,2,2,1,trainingaudio/02_pitito3.wav,trainingaudio/02_pitito1.wav,1,trainingaudio/02_pitito3.wav,,,,,,,,,,,,,,,,,,,,,,,,,,,,,,,,,,,
,,,,,,,pngimages/20_pizza.png,Omer Alrefaai,1048,2020-11-23_17h03.35.578,experiment,2020.1.3,Win32,60,,,,,,,,,,,,,,,,test1,,,,,,,,,,,,,,,,,,,,,,,,j,0.61358,0,3,3,3,1,trainingaudio/20_tatito2.wav,trainingaudio/20_tatito1.wav,2,trainingaudio/20_tatito1.wav,,,,,,,,,,,,,,,,,,,,,,,,,,,,,,,,,,,
,,,,,,,pngimages/24_banana.png,Omer Alrefaai,1048,2020-11-23_17h03.35.578,experiment,2020.1.3,Win32,60,,,,,,,,,,,,,,,,test1,,,,,,,,,,,,,,,,,,,,,,,,j,0.35259,0,4,4,4,1,trainingaudio/24_takopa2.wav,trainingaudio/24_takopa1.wav,2,trainingaudio/24_takopa1.wav,,,,,,,,,,,,,,,,,,,,,,,,,,,,,,,,,,,
,,,,,,,pngimages/09_plane.png,Omer Alrefaai,1048,2020-11-23_17h03.35.578,experiment,2020.1.3,Win32,60,,,,,,,,,,,,,,,,test1,,,,,,,,,,,,,,,,,,,,,,,,j,1.024835,0,5,5,5,1,trainingaudio/09_tipata1.wav,trainingaudio/09_tipata2.wav,2,trainingaudio/09_tipata2.wav,,,,,,,,,,,,,,,,,,,,,,,,,,,,,,,,,,,
,,,,,,,pngimages/14_coffee.png,Omer Alrefaai,1048,2020-11-23_17h03.35.578,experiment,2020.1.3,Win32,60,,,,,,,,,,,,,,,,test1,,,,,,,,,,,,,,,,,,,,,,,,f,0.484605,0,6,6,6,1,trainingaudio/14_pokoto3.wav,trainingaudio/14_pokoto1.wav,2,trainingaudio/14_pokoto1.wav,,,,,,,,,,,,,,,,,,,,,,,,,,,,,,,,,,,
,,,,,,,pngimages/15_barrel.png,Omer Alrefaai,1048,2020-11-23_17h03.35.578,experiment,2020.1.3,Win32,60,,,,,,,,,,,,,,,,test1,,,,,,,,,,,,,,,,,,,,,,,,f,0.483645,0,7,7,7,1,trainingaudio/15_kopota3.wav,trainingaudio/15_kopota2.wav,1,trainingaudio/15_kopota3.wav,,,,,,,,,,,,,,,,,,,,,,,,,,,,,,,,,,,
,,,,,,,pngimages/27_kiwi.png,Omer Alrefaai,1048,2020-11-23_17h03.35.578,experiment,2020.1.3,Win32,60,,,,,,,,,,,,,,,,test1,,,,,,,,,,,,,,,,,,,,,,,,j,0.529615,0,8,8,8,1,trainingaudio/27_pakapa3.wav,trainingaudio/27_pakapa1.wav,2,trainingaudio/27_pakapa1.wav,,,,,,,,,,,,,,,,,,,,,,,,,,,,,,,,,,,
,,,,,,,pngimages/22_egg.png,Omer Alrefaai,1048,2020-11-23_17h03.35.578,experiment,2020.1.3,Win32,60,,,,,,,,,,,,,,,,test1,,,,,,,,,,,,,,,,,,,,,,,,f,0.481955,0,9,9,9,1,trainingaudio/22_kakoki1.wav,trainingaudio/22_kakoki3.wav,1,trainingaudio/22_kakoki1.wav,,,,,,,,,,,,,,,,,,,,,,,,,,,,,,,,,,,
,,,,,,,pngimages/18_donut.png,Omer Alrefaai,1048,2020-11-23_17h03.35.578,experiment,2020.1.3,Win32,60,,,,,,,,,,,,,,,,test1,,,,,,,,,,,,,,,,,,,,,,,,j,1.98806,0,10,10,10,1,trainingaudio/18_popata2.wav,trainingaudio/18_popata3.wav,1,trainingaudio/18_popata2.wav,,,,,,,,,,,,,,,,,,,,,,,,,,,,,,,,,,,
,,,,,,,pngimages/13_toast.png,Omer Alrefaai,1048,2020-11-23_17h03.35.578,experiment,2020.1.3,Win32,60,,,,,,,,,,,,,,,,test1,,,,,,,,,,,,,,,,,,,,,,,,f,0.488305,0,11,11,11,1,trainingaudio/13_kopopi1.wav,trainingaudio/13_kopopi2.wav,1,trainingaudio/13_kopopi1.wav,,,,,,,,,,,,,,,,,,,,,,,,,,,,,,,,,,,
,,,,,,,pngimages/06_tent.png,Omer Alrefaai,1048,2020-11-23_17h03.35.578,experiment,2020.1.3,Win32,60,,,,,,,,,,,,,,,,test1,,,,,,,,,,,,,,,,,,,,,,,,f,0.44205,0,12,12,12,1,trainingaudio/06_titoka3.wav,trainingaudio/06_titoka1.wav,1,trainingaudio/06_titoka3.wav,,,,,,,,,,,,,,,,,,,,,,,,,,,,,,,,,,,
,,,,,,,pngimages/11_compass.png,Omer Alrefaai,1048,2020-11-23_17h03.35.578,experiment,2020.1.3,Win32,60,,,,,,,,,,,,,,,,test1,,,,,,,,,,,,,,,,,,,,,,,,f,0.536575,0,13,13,13,1,trainingaudio/11_tokiko3.wav,trainingaudio/11_tokiko1.wav,2,trainingaudio/11_tokiko1.wav,,,,,,,,,,,,,,,,,,,,,,,,,,,,,,,,,,,
,,,,,,,pngimages/05_megaphone.png,Omer Alrefaai,1048,2020-11-23_17h03.35.578,experiment,2020.1.3,Win32,60,,,,,,,,,,,,,,,,test1,,,,,,,,,,,,,,,,,,,,,,,,f,0.37709,0,14,14,14,1,trainingaudio/05_titopo2.wav,trainingaudio/05_titopo3.wav,1,trainingaudio/05_titopo2.wav,,,,,,,,,,,,,,,,,,,,,,,,,,,,,,,,,,,
,,,,,,,pngimages/94_house.png,Omer Alrefaai,1048,2020-11-23_17h03.35.578,experiment,2020.1.3,Win32,60,,,,,,,,,,,,,,,,test1,,,,,,,,,,,,,,,,,,,,,,,,f,0.468925,0,15,15,15,1,trainingaudio/94_kipipi1.wav,trainingaudio/94_kipipi2.wav,1,trainingaudio/94_kipipi1.wav,,,,,,,,,,,,,,,,,,,,,,,,,,,,,,,,,,,
,,,,,,,pngimages/07_suitcase.png,Omer Alrefaai,1048,2020-11-23_17h03.35.578,experiment,2020.1.3,Win32,60,,,,,,,,,,,,,,,,test1,,,,,,,,,,,,,,,,,,,,,,,,f,0.26368,0,16,16,16,1,trainingaudio/07_pitapi2.wav,trainingaudio/07_pitapi3.wav,1,trainingaudio/07_pitapi2.wav,,,,,,,,,,,,,,,,,,,,,,,,,,,,,,,,,,,
,,,,,,,pngimages/25_apple.png,Omer Alrefaai,1048,2020-11-23_17h03.35.578,experiment,2020.1.3,Win32,60,,,,,,,,,,,,,,,,test1,,,,,,,,,,,,,,,,,,,,,,,,j,0.299915,0,17,17,17,1,trainingaudio/25_tapapi2.wav,trainingaudio/25_tapapi1.wav,2,trainingaudio/25_tapapi1.wav,,,,,,,,,,,,,,,,,,,,,,,,,,,,,,,,,,,
,,,,,,,pngimages/03_box.png,Omer Alrefaai,1048,2020-11-23_17h03.35.578,experiment,2020.1.3,Win32,60,,,,,,,,,,,,,,,,test1,,,,,,,,,,,,,,,,,,,,,,,,j,0.283945,0,18,18,18,1,trainingaudio/03_kikita2.wav,trainingaudio/03_kikita3.wav,2,trainingaudio/03_kikita3.wav,,,,,,,,,,,,,,,,,,,,,,,,,,,,,,,,,,,
,,,,,,,pngimages/01_gift.png,Omer Alrefaai,1048,2020-11-23_17h03.35.578,experiment,2020.1.3,Win32,60,,,,,,,,,,,,,,,,test1,,,,,,,,,,,,,,,,,,,,,,,,f,1.10918,0,19,19,19,1,trainingaudio/01_kitipi2.wav,trainingaudio/01_kitipi1.wav,2,trainingaudio/01_kitipi1.wav,,,,,,,,,,,,,,,,,,,,,,,,,,,,,,,,,,,
,,,,,,,pngimages/26_pineapple.png,Omer Alrefaai,1048,2020-11-23_17h03.35.578,experiment,2020.1.3,Win32,60,,,,,,,,,,,,,,,,test1,,,,,,,,,,,,,,,,,,,,,,,,f,0.25527,0,20,20,20,1,trainingaudio/26_kapako2.wav,trainingaudio/26_kapako1.wav,2,trainingaudio/26_kapako1.wav,,,,,,,,,,,,,,,,,,,,,,,,,,,,,,,,,,,
,,,,,,,pngimages/10_backpack.png,Omer Alrefaai,1048,2020-11-23_17h03.35.578,experiment,2020.1.3,Win32,60,,,,,,,,,,,,,,,,test1,,,,,,,,,,,,,,,,,,,,,,,,f,0.28893,0,21,21,21,1,trainingaudio/10_tokiti3.wav,trainingaudio/10_tokiti1.wav,2,trainingaudio/10_tokiti1.wav,,,,,,,,,,,,,,,,,,,,,,,,,,,,,,,,,,,
,,,,,,,pngimages/21_cheese.png,Omer Alrefaai,1048,2020-11-23_17h03.35.578,experiment,2020.1.3,Win32,60,,,,,,,,,,,,,,,,test1,,,,,,,,,,,,,,,,,,,,,,,,j,0.343815,0,22,22,22,1,trainingaudio/21_papika1.wav,trainingaudio/21_papika3.wav,1,trainingaudio/21_papika1.wav,,,,,,,,,,,,,,,,,,,,,,,,,,,,,,,,,,,
,,,,,,,pngimages/19_burger.png,Omer Alrefaai,1048,2020-11-23_17h03.35.578,experiment,2020.1.3,Win32,60,,,,,,,,,,,,,,,,test1,,,,,,,,,,,,,,,,,,,,,,,,j,0.275875,0,23,23,23,1,trainingaudio/19_papipi1.wav,trainingaudio/19_papipi3.wav,1,trainingaudio/19_papipi1.wav,,,,,,,,,,,,,,,,,,,,,,,,,,,,,,,,,,,
,,,,,,,pngimages/17_cracker.png,Omer Alrefaai,1048,2020-11-23_17h03.35.578,experiment,2020.1.3,Win32,60,,,,,,,,,,,,,,,,test1,,,,,,,,,,,,,,,,,,,,,,,,f,0.41667,0,24,24,24,1,trainingaudio/17_kotako1.wav,trainingaudio/17_kotako2.wav,2,trainingaudio/17_kotako2.wav,,,,,,,,,,,,,,,,,,,,,,,,,,,,,,,,,,,
,,,,,,,pngimages/16_icecream.png,Omer Alrefaai,1048,2020-11-23_17h03.35.578,experiment,2020.1.3,Win32,60,,,,,,,,,,,,,,,,test1,,,,,,,,,,,,,,,,,,,,,,,,f,0.6435,0,25,25,25,1,trainingaudio/16_kokapi1.wav,trainingaudio/16_kokapi2.wav,2,trainingaudio/16_kokapi2.wav,,,,,,,,,,,,,,,,,,,,,,,,,,,,,,,,,,,
,,,,,,,pngimages/23_lemon.png,Omer Alrefaai,1048,2020-11-23_17h03.35.578,experiment,2020.1.3,Win32,60,,,,,,,,,,,,,,,,test1,,,,,,,,,,,,,,,,,,,,,,,,j,0.0808,0,26,26,26,1,trainingaudio/23_patoko2.wav,trainingaudio/23_patoko1.wav,2,trainingaudio/23_patoko1.wav,,,,,,,,,,,,,,,,,,,,,,,,,,,,,,,,,,,
,,,,,,,pngimages/08_bell.png,Omer Alrefaai,1048,2020-11-23_17h03.35.578,experiment,2020.1.3,Win32,60,,,,,,,,,,,,,,,,test1,,,,,,,,,,,,,,,,,,,,,,,,f,0.380045,0,27,27,27,1,trainingaudio/08_tipako2.wav,trainingaudio/08_tipako3.wav,1,trainingaudio/08_tipako2.wav,,,,,,,,,,,,,,,,,,,,,,,,,,,,,,,,,,,
,,,,,,,pngimages/27_kiwi.png,Omer Alrefaai,1048,2020-11-23_17h03.35.578,experiment,2020.1.3,Win32,60,,,,,,,,,,,,,,,,test1,,,,,,,,,,,,,,,,,,,,,,,,j,0.146975,0,28,28,28,1,trainingaudio/27_pakapa2.wav,trainingaudio/27_pakapa1.wav,2,trainingaudio/27_pakapa1.wav,,,,,,,,,,,,,,,,,,,,,,,,,,,,,,,,,,,
,,,,,,,pngimages/20_pizza.png,Omer Alrefaai,1048,2020-11-23_17h03.35.578,experiment,2020.1.3,Win32,60,,,,,,,,,,,,,,,,test1,,,,,,,,,,,,,,,,,,,,,,,,f,0.391795,0,29,29,29,1,trainingaudio/20_tatito3.wav,trainingaudio/20_tatito1.wav,2,trainingaudio/20_tatito1.wav,,,,,,,,,,,,,,,,,,,,,,,,,,,,,,,,,,,
,,,,,,,pngimages/12_pie.png,Omer Alrefaai,1048,2020-11-23_17h03.35.578,experiment,2020.1.3,Win32,60,,,,,,,,,,,,,,,,test1,,,,,,,,,,,,,,,,,,,,,,,,f,0.279465,0,30,30,30,1,trainingaudio/12_pokika3.wav,trainingaudio/12_pokika1.wav,1,trainingaudio/12_pokika3.wav,,,,,,,,,,,,,,,,,,,,,,,,,,,,,,,,,,,
,,,,,,,pngimages/01_gift.png,Omer Alrefaai,1048,2020-11-23_17h03.35.578,experiment,2020.1.3,Win32,60,,,,,,,,,,,,,,,,test1,,,,,,,,,,,,,,,,,,,,,,,,f,0.104885,0,31,31,31,1,trainingaudio/01_kitipi3.wav,trainingaudio/01_kitipi1.wav,2,trainingaudio/01_kitipi1.wav,,,,,,,,,,,,,,,,,,,,,,,,,,,,,,,,,,,
,,,,,,,pngimages/09_plane.png,Omer Alrefaai,1048,2020-11-23_17h03.35.578,experiment,2020.1.3,Win32,60,,,,,,,,,,,,,,,,test1,,,,,,,,,,,,,,,,,,,,,,,,j,1.459405,0,32,32,32,1,trainingaudio/09_tipata3.wav,trainingaudio/09_tipata2.wav,2,trainingaudio/09_tipata2.wav,,,,,,,,,,,,,,,,,,,,,,,,,,,,,,,,,,,
,,,,,,,pngimages/25_apple.png,Omer Alrefaai,1048,2020-11-23_17h03.35.578,experiment,2020.1.3,Win32,60,,,,,,,,,,,,,,,,test1,,,,,,,,,,,,,,,,,,,,,,,,j,0.252285,0,33,33,33,1,trainingaudio/25_tapapi3.wav,trainingaudio/25_tapapi1.wav,2,trainingaudio/25_tapapi1.wav,,,,,,,,,,,,,,,,,,,,,,,,,,,,,,,,,,,
,,,,,,,pngimages/02_pallet.png,Omer Alrefaai,1048,2020-11-23_17h03.35.578,experiment,2020.1.3,Win32,60,,,,,,,,,,,,,,,,test1,,,,,,,,,,,,,,,,,,,,,,,,f,0.01767,0,34,34,34,1,trainingaudio/02_pitito3.wav,trainingaudio/02_pitito2.wav,1,trainingaudio/02_pitito3.wav,,,,,,,,,,,,,,,,,,,,,,,,,,,,,,,,,,,
,,,,,,,pngimages/08_bell.png,Omer Alrefaai,1048,2020-11-23_17h03.35.578,experiment,2020.1.3,Win32,60,,,,,,,,,,,,,,,,test1,,,,,,,,,,,,,,,,,,,,,,,,j,0.550115,0,35,35,35,1,trainingaudio/08_tipako2.wav,trainingaudio/08_tipako1.wav,1,trainingaudio/08_tipako2.wav,,,,,,,,,,,,,,,,,,,,,,,,,,,,,,,,,,,
,,,,,,,pngimages/15_barrel.png,Omer Alrefaai,1048,2020-11-23_17h03.35.578,experiment,2020.1.3,Win32,60,,,,,,,,,,,,,,,,test1,,,,,,,,,,,,,,,,,,,,,,,,f,0.58766,0,36,36,36,1,trainingaudio/15_kopota1.wav,trainingaudio/15_kopota3.wav,2,trainingaudio/15_kopota3.wav,,,,,,,,,,,,,,,,,,,,,,,,,,,,,,,,,,,
,,,,,,,pngimages/24_banana.png,Omer Alrefaai,1048,2020-11-23_17h03.35.578,experiment,2020.1.3,Win32,60,,,,,,,,,,,,,,,,test1,,,,,,,,,,,,,,,,,,,,,,,,f,0.18045,0,37,37,37,1,trainingaudio/24_takopa3.wav,trainingaudio/24_takopa1.wav,2,trainingaudio/24_takopa1.wav,,,,,,,,,,,,,,,,,,,,,,,,,,,,,,,,,,,
,,,,,,,pngimages/06_tent.png,Omer Alrefaai,1048,2020-11-23_17h03.35.578,experiment,2020.1.3,Win32,60,,,,,,,,,,,,,,,,test1,,,,,,,,,,,,,,,,,,,,,,,,j,0.37619,0,38,38,38,1,trainingaudio/06_titoka2.wav,trainingaudio/06_titoka3.wav,2,trainingaudio/06_titoka3.wav,,,,,,,,,,,,,,,,,,,,,,,,,,,,,,,,,,,
,,,,,,,pngimages/16_icecream.png,Omer Alrefaai,1048,2020-11-23_17h03.35.578,experiment,2020.1.3,Win32,60,,,,,,,,,,,,,,,,test1,,,,,,,,,,,,,,,,,,,,,,,,f,1.233175,0,39,39,39,1,trainingaudio/16_kokapi2.wav,trainingaudio/16_kokapi3.wav,1,trainingaudio/16_kokapi2.wav,,,,,,,,,,,,,,,,,,,,,,,,,,,,,,,,,,,
,,,,,,,pngimages/04_ladder.png,Omer Alrefaai,1048,2020-11-23_17h03.35.578,experiment,2020.1.3,Win32,60,,,,,,,,,,,,,,,,test1,,,,,,,,,,,,,,,,,,,,,,,,j,0.44162,0,40,40,40,1,trainingaudio/04_kitoti1.wav,trainingaudio/04_kitoti2.wav,2,trainingaudio/04_kitoti2.wav,,,,,,,,,,,,,,,,,,,,,,,,,,,,,,,,,,,
,,,,,,,pngimages/22_egg.png,Omer Alrefaai,1048,2020-11-23_17h03.35.578,experiment,2020.1.3,Win32,60,,,,,,,,,,,,,,,,test1,,,,,,,,,,,,,,,,,,,,,,,,f,1.335075,0,41,41,41,1,trainingaudio/22_kakoki2.wav,trainingaudio/22_kakoki1.wav,2,trainingaudio/22_kakoki1.wav,,,,,,,,,,,,,,,,,,,,,,,,,,,,,,,,,,,
,,,,,,,pngimages/17_cracker.png,Omer Alrefaai,1048,2020-11-23_17h03.35.578,experiment,2020.1.3,Win32,60,,,,,,,,,,,,,,,,test1,,,,,,,,,,,,,,,,,,,,,,,,f,0.589355,0,42,42,42,1,trainingaudio/17_kotako2.wav,trainingaudio/17_kotako3.wav,1,trainingaudio/17_kotako2.wav,,,,,,,,,,,,,,,,,,,,,,,,,,,,,,,,,,,
,,,,,,,pngimages/13_toast.png,Omer Alrefaai,1048,2020-11-23_17h03.35.578,experiment,2020.1.3,Win32,60,,,,,,,,,,,,,,,,test1,,,,,,,,,,,,,,,,,,,,,,,,j,3.21592,0,43,43,43,1,trainingaudio/13_kopopi3.wav,trainingaudio/13_kopopi1.wav,2,trainingaudio/13_kopopi1.wav,,,,,,,,,,,,,,,,,,,,,,,,,,,,,,,,,,,
,,,,,,,pngimages/94_house.png,Omer Alrefaai,1048,2020-11-23_17h03.35.578,experiment,2020.1.3,Win32,60,,,,,,,,,,,,,,,,test1,,,,,,,,,,,,,,,,,,,,,,,,j,0.549415,0,44,44,44,1,trainingaudio/94_kipipi2.wav,trainingaudio/94_kipipi1.wav,2,trainingaudio/94_kipipi1.wav,,,,,,,,,,,,,,,,,,,,,,,,,,,,,,,,,,,
,,,,,,,pngimages/07_suitcase.png,Omer Alrefaai,1048,2020-11-23_17h03.35.578,experiment,2020.1.3,Win32,60,,,,,,,,,,,,,,,,test1,,,,,,,,,,,,,,,,,,,,,,,,j,0.71673,0,45,45,45,1,trainingaudio/07_pitapi2.wav,trainingaudio/07_pitapi3.wav,1,trainingaudio/07_pitapi2.wav,,,,,,,,,,,,,,,,,,,,,,,,,,,,,,,,,,,
,,,,,,,pngimages/10_backpack.png,Omer Alrefaai,1048,2020-11-23_17h03.35.578,experiment,2020.1.3,Win32,60,,,,,,,,,,,,,,,,test1,,,,,,,,,,,,,,,,,,,,,,,,f,0.340135,0,46,46,46,1,trainingaudio/10_tokiti3.wav,trainingaudio/10_tokiti1.wav,2,trainingaudio/10_tokiti1.wav,,,,,,,,,,,,,,,,,,,,,,,,,,,,,,,,,,,
,,,,,,,pngimages/19_burger.png,Omer Alrefaai,1048,2020-11-23_17h03.35.578,experiment,2020.1.3,Win32,60,,,,,,,,,,,,,,,,test1,,,,,,,,,,,,,,,,,,,,,,,,f,0.308405,0,47,47,47,1,trainingaudio/19_papipi3.wav,trainingaudio/19_papipi1.wav,2,trainingaudio/19_papipi1.wav,,,,,,,,,,,,,,,,,,,,,,,,,,,,,,,,,,,
,,,,,,,pngimages/18_donut.png,Omer Alrefaai,1048,2020-11-23_17h03.35.578,experiment,2020.1.3,Win32,60,,,,,,,,,,,,,,,,test1,,,,,,,,,,,,,,,,,,,,,,,,j,0.720365,0,48,48,48,1,trainingaudio/18_popata2.wav,trainingaudio/18_popata3.wav,1,trainingaudio/18_popata2.wav,,,,,,,,,,,,,,,,,,,,,,,,,,,,,,,,,,,
,,,,,,,pngimages/11_compass.png,Omer Alrefaai,1048,2020-11-23_17h03.35.578,experiment,2020.1.3,Win32,60,,,,,,,,,,,,,,,,test1,,,,,,,,,,,,,,,,,,,,,,,,f,0.73627,0,49,49,49,1,trainingaudio/11_tokiko1.wav,trainingaudio/11_tokiko2.wav,1,trainingaudio/11_tokiko1.wav,,,,,,,,,,,,,,,,,,,,,,,,,,,,,,,,,,,
,,,,,,,pngimages/21_cheese.png,Omer Alrefaai,1048,2020-11-23_17h03.35.578,experiment,2020.1.3,Win32,60,,,,,,,,,,,,,,,,test1,,,,,,,,,,,,,,,,,,,,,,,,j,0.39808,0,50,50,50,1,trainingaudio/21_papika1.wav,trainingaudio/21_papika3.wav,1,trainingaudio/21_papika1.wav,,,,,,,,,,,,,,,,,,,,,,,,,,,,,,,,,,,
,,,,,,,pngimages/05_megaphone.png,Omer Alrefaai,1048,2020-11-23_17h03.35.578,experiment,2020.1.3,Win32,60,,,,,,,,,,,,,,,,test1,,,,,,,,,,,,,,,,,,,,,,,,f,0.54261,0,51,51,51,1,trainingaudio/05_titopo2.wav,trainingaudio/05_titopo3.wav,1,trainingaudio/05_titopo2.wav,,,,,,,,,,,,,,,,,,,,,,,,,,,,,,,,,,,
,,,,,,,pngimages/26_pineapple.png,Omer Alrefaai,1048,2020-11-23_17h03.35.578,experiment,2020.1.3,Win32,60,,,,,,,,,,,,,,,,test1,,,,,,,,,,,,,,,,,,,,,,,,j,0.805425,0,52,52,52,1,trainingaudio/26_kapako1.wav,trainingaudio/26_kapako2.wav,1,trainingaudio/26_kapako1.wav,,,,,,,,,,,,,,,,,,,,,,,,,,,,,,,,,,,
,,,,,,,pngimages/23_lemon.png,Omer Alrefaai,1048,2020-11-23_17h03.35.578,experiment,2020.1.3,Win32,60,,,,,,,,,,,,,,,,test1,,,,,,,,,,,,,,,,,,,,,,,,f,0.384915,0,53,53,53,1,trainingaudio/23_patoko1.wav,trainingaudio/23_patoko3.wav,1,trainingaudio/23_patoko1.wav,,,,,,,,,,,,,,,,,,,,,,,,,,,,,,,,,,,
,,,,,,,pngimages/14_coffee.png,Omer Alrefaai,1048,2020-11-23_17h03.35.578,experiment,2020.1.3,Win32,60,,,,,,,,,,,,,,,,test1,,,,,,,,,,,,,,,,,,,,,,,,f,0.580825,0,54,54,54,1,trainingaudio/14_pokoto2.wav,trainingaudio/14_pokoto1.wav,2,trainingaudio/14_pokoto1.wav,,,,,,,,,,,,,,,,,,,,,,,,,,,,,,,,,,,
,,,,,,,pngimages/03_box.png,Omer Alrefaai,1048,2020-11-23_17h03.35.578,experiment,2020.1.3,Win32,60,,,,,,,,,,,,,,,,test1,,,,,,,,,,,,,,,,,,,,,,,,j,0.19896,0,55,55,55,1,trainingaudio/03_kikita3.wav,trainingaudio/03_kikita1.wav,1,trainingaudio/03_kikita3.wav,,,,,,,,,,,,,,,,,,,,,,,,,,,,,,,,,,,
,,,,,,,pngimages/67_laptop.png,Omer Alrefaai,1048,2020-11-23_17h03.35.578,experiment,2020.1.3,Win32,60,,,,,,,,,,,,,,,,test2,,,,,,,,,,,,,,,,,,,,,,,,,,,,,,,novelaudio/67_tokoki1.wav,novelaudio/67_tokoki2.wav,1,,j,1.472495,j,1.85098,j,0.623855,0,0,0,0,1,,,,,,,,,,,,,,,,,,,,,,,,
,,,,,,,pngimages/49_calculator.png,Omer Alrefaai,1048,2020-11-23_17h03.35.578,experiment,2020.1.3,Win32,60,,,,,,,,,,,,,,,,test2,,,,,,,,,,,,,,,,,,,,,,,,,,,,,,,novelaudio/49_tatopi3.wav,novelaudio/49_tatopi1.wav,2,,,,,,j,0.203955,0,1,1,1,1,,,,,,,,,,,,,,,,,,,,,,,,
,,,,,,,pngimages/59_umbrella.png,Omer Alrefaai,1048,2020-11-23_17h03.35.578,experiment,2020.1.3,Win32,60,,,,,,,,,,,,,,,,test2,,,,,,,,,,,,,,,,,,,,,,,,,,,,,,,novelaudio/59_tipoko2.wav,novelaudio/59_tipoko3.wav,1,,,,,,f,0.417285,0,2,2,2,1,,,,,,,,,,,,,,,,,,,,,,,,
,,,,,,,pngimages/45_scissors.png,Omer Alrefaai,1048,2020-11-23_17h03.35.578,experiment,2020.1.3,Win32,60,,,,,,,,,,,,,,,,test2,,,,,,,,,,,,,,,,,,,,,,,,,,,,,,,novelaudio/45_totaka2.wav,novelaudio/45_totaka1.wav,1,,,,,,j,0.000815,0,3,3,3,1,,,,,,,,,,,,,,,,,,,,,,,,
,,,,,,,pngimages/35_skillet.png,Omer Alrefaai,1048,2020-11-23_17h03.35.578,experiment,2020.1.3,Win32,60,,,,,,,,,,,,,,,,test2,,,,,,,,,,,,,,,,,,,,,,,,,,,,,,,novelaudio/35_titato2.wav,novelaudio/35_titato1.wav,1,,,,,,j,0.488865,0,4,4,4,1,,,,,,,,,,,,,,,,,,,,,,,,
,,,,,,,pngimages/39_fork.png,Omer Alrefaai,1048,2020-11-23_17h03.35.578,experiment,2020.1.3,Win32,60,,,,,,,,,,,,,,,,test2,,,,,,,,,,,,,,,,,,,,,,,,,,,,,,,novelaudio/39_kotipa1.wav,novelaudio/39_kotipa3.wav,2,,,,,,f,0.397105,0,5,5,5,1,,,,,,,,,,,,,,,,,,,,,,,,
,,,,,,,pngimages/68_heart.png,Omer Alrefaai,1048,2020-11-23_17h03.35.578,experiment,2020.1.3,Win32,60,,,,,,,,,,,,,,,,test2,,,,,,,,,,,,,,,,,,,,,,,,,,,,,,,novelaudio/68_pokopo2.wav,novelaudio/68_pokopo1.wav,2,,,,,,j,0.03715,0,6,6,6,1,,,,,,,,,,,,,,,,,,,,,,,,
,,,,,,,pngimages/74_boat.png,Omer Alrefaai,1048,2020-11-23_17h03.35.578,experiment,2020.1.3,Win32,60,,,,,,,,,,,,,,,,test2,,,,,,,,,,,,,,,,,,,,,,,,,,,,,,,novelaudio/74_tatiko1.wav,novelaudio/74_tatiko2.wav,1,,,,,,f,0.534545,0,7,7,7,1,,,,,,,,,,,,,,,,,,,,,,,,
,,,,,,,pngimages/75_chicken.png,Omer Alrefaai,1048,2020-11-23_17h03.35.578,experiment,2020.1.3,Win32,60,,,,,,,,,,,,,,,,test2,,,,,,,,,,,,,,,,,,,,,,,,,,,,,,,novelaudio/75_kakita3.wav,novelaudio/75_kakita1.wav,2,,,,,,f,0.644945,0,8,8,8,1,,,,,,,,,,,,,,,,,,,,,,,,
,,,,,,,pngimages/29_cherry.png,Omer Alrefaai,1048,2020-11-23_17h03.35.578,experiment,2020.1.3,Win32,60,,,,,,,,,,,,,,,,test2,,,,,,,,,,,,,,,,,,,,,,,,,,,,,,,novelaudio/29_pipito3.wav,novelaudio/29_pipito2.wav,1,,,,,,j,0.120325,0,9,9,9,1,,,,,,,,,,,,,,,,,,,,,,,,
,,,,,,,pngimages/62_screwdriver.png,Omer Alrefaai,1048,2020-11-23_17h03.35.578,experiment,2020.1.3,Win32,60,,,,,,,,,,,,,,,,test2,,,,,,,,,,,,,,,,,,,,,,,,,,,,,,,novelaudio/62_pitako2.wav,novelaudio/62_pitako1.wav,1,,,,,,f,0.38471,0,10,10,10,1,,,,,,,,,,,,,,,,,,,,,,,,
,,,,,,,pngimages/40_spoon.png,Omer Alrefaai,1048,2020-11-23_17h03.35.578,experiment,2020.1.3,Win32,60,,,,,,,,,,,,,,,,test2,,,,,,,,,,,,,,,,,,,,,,,,,,,,,,,novelaudio/40_kototi2.wav,novelaudio/40_kototi1.wav,2,,,,,,j,0.295945,0,11,11,11,1,,,,,,,,,,,,,,,,,,,,,,,,
,,,,,,,pngimages/52_newspaper.png,Omer Alrefaai,1048,2020-11-23_17h03.35.578,experiment,2020.1.3,Win32,60,,,,,,,,,,,,,,,,test2,,,,,,,,,,,,,,,,,,,,,,,,,,,,,,,novelaudio/52_pakaki3.wav,novelaudio/52_pakaki1.wav,2,,,,,,f,0.27467,0,12,12,12,1,,,,,,,,,,,,,,,,,,,,,,,,
,,,,,,,pngimages/46_paper.png,Omer Alrefaai,1048,2020-11-23_17h03.35.578,experiment,2020.1.3,Win32,60,,,,,,,,,,,,,,,,test2,,,,,,,,,,,,,,,,,,,,,,,,,,,,,,,novelaudio/46_tapiti1.wav,novelaudio/46_tapiti2.wav,1,,,,,,j,0.601425,0,13,13,13,1,,,,,,,,,,,,,,,,,,,,,,,,
,,,,,,,pngimages/78_cow.png,Omer Alrefaai,1048,2020-11-23_17h03.35.578,experiment,2020.1.3,Win32,60,,,,,,,,,,,,,,,,test2,,,,,,,,,,,,,,,,,,,,,,,,,,,,,,,novelaudio/78_kakoka1.wav,novelaudio/78_kakoka2.wav,1,,,,,,j,0.454985,0,14,14,14,1,,,,,,,,,,,,,,,,,,,,,,,,
,,,,,,,pngimages/37_mug.png,Omer Alrefaai,1048,2020-11-23_17h03.35.578,experiment,2020.1.3,Win32,60,,,,,,,,,,,,,,,,test2,,,,,,,,,,,,,,,,,,,,,,,,,,,,,,,novelaudio/37_kokiti1.wav,novelaudio/37_kokiti3.wav,1,,,,,,f,0.01183,0,15,15,15,1,,,,,,,,,,,,,,,,,,,,,,,,
,,,,,,,pngimages/41_piano.png,Omer Alrefaai,1048,2020-11-23_17h03.35.578,experiment,2020.1.3,Win32,60,,,,,,,,,,,,,,,,test2,,,,,,,,,,,,,,,,,,,,,,,,,,,,,,,novelaudio/41_pototo1.wav,novelaudio/41_pototo2.wav,1,,,,,,j,0.42753,0,16,16,16,1,,,,,,,,,,,,,,,,,,,,,,,,
,,,,,,,pngimages/50_ruler.png,Omer Alrefaai,1048,2020-11-23_17h03.35.578,experiment,2020.1.3,Win32,60,,,,,,,,,,,,,,,,test2,,,,,,,,,,,,,,,,,,,,,,,,,,,,,,,novelaudio/50_katoko2.wav,novelaudio/50_katoko1.wav,2,,,,,,f,0.026585,0,17,17,17,1,,,,,,,,,,,,,,,,,,,,,,,,
,,,,,,,pngimages/72_nose.png,Omer Alrefaai,1048,2020-11-23_17h03.35.578,experiment,2020.1.3,Win32,60,,,,,,,,,,,,,,,,test2,,,,,,,,,,,,,,,,,,,,,,,,,,,,,,,novelaudio/72_topata2.wav,novelaudio/72_topata3.wav,1,,,,,,f,0.117705,0,18,18,18,1,,,,,,,,,,,,,,,,,,,,,,,,
,,,,,,,pngimages/64_shovel.png,Omer Alrefaai,1048,2020-11-23_17h03.35.578,experiment,2020.1.3,Win32,60,,,,,,,,,,,,,,,,test2,,,,,,,,,,,,,,,,,,,,,,,,,,,,,,,novelaudio/64_popiti3.wav,novelaudio/64_popiti1.wav,2,,,,,,j,0.20458,0,19,19,19,1,,,,,,,,,,,,,,,,,,,,,,,,
,,,,,,,pngimages/61_key.png,Omer Alrefaai,1048,2020-11-23_17h03.35.578,experiment,2020.1.3,Win32,60,,,,,,,,,,,,,,,,test2,,,,,,,,,,,,,,,,,,,,,,,,,,,,,,,novelaudio/61_pikati2.wav,novelaudio/61_pikati1.wav,1,,,,,,f,0.491525,0,20,20,20,1,,,,,,,,,,,,,,,,,,,,,,,,
,,,,,,,pngimages/48_brush.png,Omer Alrefaai,1048,2020-11-23_17h03.35.578,experiment,2020.1.3,Win32,60,,,,,,,,,,,,,,,,test2,,,,,,,,,,,,,,,,,,,,,,,,,,,,,,,novelaudio/48_pakipa1.wav,novelaudio/48_pakipa3.wav,1,,,,,,j,0.116805,0,21,21,21,1,,,,,,,,,,,,,,,,,,,,,,,,
,,,,,,,pngimages/57_flashlight.png,Omer Alrefaai,1048,2020-11-23_17h03.35.578,experiment,2020.1.3,Win32,60,,,,,,,,,,,,,,,,test2,,,,,,,,,,,,,,,,,,,,,,,,,,,,,,,novelaudio/57_tipipa3.wav,novelaudio/57_tipipa1.wav,1,,,,,,j,0.34678,0,22,22,22,1,,,,,,,,,,,,,,,,,,,,,,,,
,,,,,,,pngimages/32_greenpepper.png,Omer Alrefaai,1048,2020-11-23_17h03.35.578,experiment,2020.1.3,Win32,60,,,,,,,,,,,,,,,,test2,,,,,,,,,,,,,,,,,,,,,,,,,,,,,,,novelaudio/32_kipoto1.wav,novelaudio/32_kipoto2.wav,2,,,,,,j,0.150805,0,23,23,23,1,,,,,,,,,,,,,,,,,,,,,,,,
,,,,,,,pngimages/54_toiletpaper.png,Omer Alrefaai,1048,2020-11-23_17h03.35.578,experiment,2020.1.3,Win32,60,,,,,,,,,,,,,,,,test2,,,,,,,,,,,,,,,,,,,,,,,,,,,,,,,novelaudio/54_kapapa1.wav,novelaudio/54_kapapa2.wav,1,,,,,,f,0.156645,0,24,24,24,1,,,,,,,,,,,,,,,,,,,,,,,,
,,,,,,,pngimages/79_pig.png,Omer Alrefaai,1048,2020-11-23_17h03.35.578,experiment,2020.1.3,Win32,60,,,,,,,,,,,,,,,,test2,,,,,,,,,,,,,,,,,,,,,,,,,,,,,,,novelaudio/79_katapi1.wav,novelaudio/79_katapi2.wav,1,,,,,,j,0.49803,0,25,25,25,1,,,,,,,,,,,,,,,,,,,,,,,,
,,,,,,,pngimages/55_toilet.png,Omer Alrefaai,1048,2020-11-23_17h03.35.578,experiment,2020.1.3,Win32,60,,,,,,,,,,,,,,,,test2,,,,,,,,,,,,,,,,,,,,,,,,,,,,,,,novelaudio/55_pikiki3.wav,novelaudio/55_pikiki1.wav,2,,,,,,f,0.436975,0,26,26,26,1,,,,,,,,,,,,,,,,,,,,,,,,
,,,,,,,pngimages/43_guitar.png,Omer Alrefaai,1048,2020-11-23_17h03.35.578,experiment,2020.1.3,Win32,60,,,,,,,,,,,,,,,,test2,,,,,,,,,,,,,,,,,,,,,,,,,,,,,,,novelaudio/43_potaki3.wav,novelaudio/43_potaki2.wav,2,,,,,,j,0.301425,0,27,27,27,1,,,,,,,,,,,,,,,,,,,,,,,,
,,,,,,,pngimages/53_hammer.png,Omer Alrefaai,1048,2020-11-23_17h03.35.578,experiment,2020.1.3,Win32,60,,,,,,,,,,,,,,,,test2,,,,,,,,,,,,,,,,,,,,,,,,,,,,,,,novelaudio/53_patapo1.wav,novelaudio/53_patapo2.wav,1,,,,,,j,0.15088,0,28,28,28,1,,,,,,,,,,,,,,,,,,,,,,,,
,,,,,,,pngimages/66_safe.png,Omer Alrefaai,1048,2020-11-23_17h03.35.578,experiment,2020.1.3,Win32,60,,,,,,,,,,,,,,,,test2,,,,,,,,,,,,,,,,,,,,,,,,,,,,,,,novelaudio/66_kopipa2.wav,novelaudio/66_kopipa3.wav,2,,,,,,j,0.000895,0,29,29,29,1,,,,,,,,,,,,,,,,,,,,,,,,
,,,,,,,pngimages/36_microwave.png,Omer Alrefaai,1048,2020-11-23_17h03.35.578,experiment,2020.1.3,Win32,60,,,,,,,,,,,,,,,,test2,,,,,,,,,,,,,,,,,,,,,,,,,,,,,,,novelaudio/36_pipapa2.wav,novelaudio/36_pipapa1.wav,1,,,,,,f,0.335445,0,30,30,30,1,,,,,,,,,,,,,,,,,,,,,,,,
,,,,,,,pngimages/81_cat.png,Omer Alrefaai,1048,2020-11-23_17h03.35.578,experiment,2020.1.3,Win32,60,,,,,,,,,,,,,,,,test2,,,,,,,,,,,,,,,,,,,,,,,,,,,,,,,novelaudio/81_kakapa3.wav,novelaudio/81_kakapa1.wav,2,,,,,,j,0.37085,0,31,31,31,1,,,,,,,,,,,,,,,,,,,,,,,,
,,,,,,,pngimages/28_grape.png,Omer Alrefaai,1048,2020-11-23_17h03.35.578,experiment,2020.1.3,Win32,60,,,,,,,,,,,,,,,,test2,,,,,,,,,,,,,,,,,,,,,,,,,,,,,,,novelaudio/28_pipiki2.wav,novelaudio/28_pipiki1.wav,2,,,,,,f,0.404255,0,32,32,32,1,,,,,,,,,,,,,,,,,,,,,,,,
,,,,,,,pngimages/65_wrench.png,Omer Alrefaai,1048,2020-11-23_17h03.35.578,experiment,2020.1.3,Win32,60,,,,,,,,,,,,,,,,test2,,,,,,,,,,,,,,,,,,,,,,,,,,,,,,,novelaudio/65_totipo3.wav,novelaudio/65_totipo1.wav,2,,,,,,j,0.204625,0,33,33,33,1,,,,,,,,,,,,,,,,,,,,,,,,
,,,,,,,pngimages/51_pencil.png,Omer Alrefaai,1048,2020-11-23_17h03.35.578,experiment,2020.1.3,Win32,60,,,,,,,,,,,,,,,,test2,,,,,,,,,,,,,,,,,,,,,,,,,,,,,,,novelaudio/51_tapopa1.wav,novelaudio/51_tapopa3.wav,1,,,,,,f,0.29003,0,34,34,34,1,,,,,,,,,,,,,,,,,,,,,,,,
,,,,,,,pngimages/44_envelope.png,Omer Alrefaai,1048,2020-11-23_17h03.35.578,experiment,2020.1.3,Win32,60,,,,,,,,,,,,,,,,test2,,,,,,,,,,,,,,,,,,,,,,,,,,,,,,,novelaudio/44_pokato3.wav,novelaudio/44_pokato2.wav,2,,,,,,j,0.45554,0,35,35,35,1,,,,,,,,,,,,,,,,,,,,,,,,
,,,,,,,pngimages/70_hand.png,Omer Alrefaai,1048,2020-11-23_17h03.35.578,experiment,2020.1.3,Win32,60,,,,,,,,,,,,,,,,test2,,,,,,,,,,,,,,,,,,,,,,,,,,,,,,,novelaudio/70_kopati1.wav,novelaudio/70_kopati2.wav,2,,,,,,f,0.042625,0,36,36,36,1,,,,,,,,,,,,,,,,,,,,,,,,
,,,,,,,pngimages/31_tomato.png,Omer Alrefaai,1048,2020-11-23_17h03.35.578,experiment,2020.1.3,Win32,60,,,,,,,,,,,,,,,,test2,,,,,,,,,,,,,,,,,,,,,,,,,,,,,,,novelaudio/31_kikopi1.wav,novelaudio/31_kikopi2.wav,2,,,,,,j,0.769505,0,37,37,37,1,,,,,,,,,,,,,,,,,,,,,,,,
,,,,,,,pngimages/69_tooth.png,Omer Alrefaai,1048,2020-11-23_17h03.35.578,experiment,2020.1.3,Win32,60,,,,,,,,,,,,,,,,test2,,,,,,,,,,,,,,,,,,,,,,,,,,,,,,,novelaudio/69_kotota2.wav,novelaudio/69_kotota3.wav,2,,,,,,j,0.18615,0,38,38,38,1,,,,,,,,,,,,,,,,,,,,,,,,
,,,,,,,pngimages/63_chair.png,Omer Alrefaai,1048,2020-11-23_17h03.35.578,experiment,2020.1.3,Win32,60,,,,,,,,,,,,,,,,test2,,,,,,,,,,,,,,,,,,,,,,,,,,,,,,,novelaudio/63_pitapa2.wav,novelaudio/63_pitapa3.wav,1,,,,,,f,0.036655,0,39,39,39,1,,,,,,,,,,,,,,,,,,,,,,,,
,,,,,,,pngimages/42_harp.png,Omer Alrefaai,1048,2020-11-23_17h03.35.578,experiment,2020.1.3,Win32,60,,,,,,,,,,,,,,,,test2,,,,,,,,,,,,,,,,,,,,,,,,,,,,,,,novelaudio/42_tokota2.wav,novelaudio/42_tokota3.wav,2,,,,,,j,0.251105,0,40,40,40,1,,,,,,,,,,,,,,,,,,,,,,,,
,,,,,,,pngimages/56_towel.png,Omer Alrefaai,1048,2020-11-23_17h03.35.578,experiment,2020.1.3,Win32,60,,,,,,,,,,,,,,,,test2,,,,,,,,,,,,,,,,,,,,,,,,,,,,,,,novelaudio/56_pipiko3.wav,novelaudio/56_pipiko1.wav,1,,,,,,f,2.744015,0,41,41,41,1,,,,,,,,,,,,,,,,,,,,,,,,
,,,,,,,pngimages/77_bear.png,Omer Alrefaai,1048,2020-11-23_17h03.35.578,experiment,2020.1.3,Win32,60,,,,,,,,,,,,,,,,test2,,,,,,,,,,,,,,,,,,,,,,,,,,,,,,,novelaudio/77_takopo1.wav,novelaudio/77_takopo3.wav,1,,,,,,j,0.40686,0,42,42,42,1,,,,,,,,,,,,,,,,,,,,,,,,
,,,,,,,pngimages/60_firewood.png,Omer Alrefaai,1048,2020-11-23_17h03.35.578,experiment,2020.1.3,Win32,60,,,,,,,,,,,,,,,,test2,,,,,,,,,,,,,,,,,,,,,,,,,,,,,,,novelaudio/60_pipopa3.wav,novelaudio/60_pipopa1.wav,1,,,,,,f,0.37327,0,43,43,43,1,,,,,,,,,,,,,,,,,,,,,,,,
,,,,,,,pngimages/76_rabbit.png,Omer Alrefaai,1048,2020-11-23_17h03.35.578,experiment,2020.1.3,Win32,60,,,,,,,,,,,,,,,,test2,,,,,,,,,,,,,,,,,,,,,,,,,,,,,,,novelaudio/76_patoti1.wav,novelaudio/76_patoti2.wav,1,,,,,,j,0.285855,0,44,44,44,1,,,,,,,,,,,,,,,,,,,,,,,,
,,,,,,,pngimages/80_dog.png,Omer Alrefaai,1048,2020-11-23_17h03.35.578,experiment,2020.1.3,Win32,60,,,,,,,,,,,,,,,,test2,,,,,,,,,,,,,,,,,,,,,,,,,,,,,,,novelaudio/80_tatato2.wav,novelaudio/80_tatato1.wav,2,,,,,,j,4.882805,0,45,45,45,1,,,,,,,,,,,,,,,,,,,,,,,,
,,,,,,,pngimages/47_notebook.png,Omer Alrefaai,1048,2020-11-23_17h03.35.578,experiment,2020.1.3,Win32,60,,,,,,,,,,,,,,,,test2,,,,,,,,,,,,,,,,,,,,,,,,,,,,,,,novelaudio/47_takiko1.wav,novelaudio/47_takiko2.wav,1,,,,,,f,0.66814,0,46,46,46,1,,,,,,,,,,,,,,,,,,,,,,,,
,,,,,,,pngimages/73_car.png,Omer Alrefaai,1048,2020-11-23_17h03.35.578,experiment,2020.1.3,Win32,60,,,,,,,,,,,,,,,,test2,,,,,,,,,,,,,,,,,,,,,,,,,,,,,,,novelaudio/73_takiti2.wav,novelaudio/73_takiti1.wav,2,,,,,,j,0.50023,0,47,47,47,1,,,,,,,,,,,,,,,,,,,,,,,,
,,,,,,,pngimages/58_nail.png,Omer Alrefaai,1048,2020-11-23_17h03.35.578,experiment,2020.1.3,Win32,60,,,,,,,,,,,,,,,,test2,,,,,,,,,,,,,,,,,,,,,,,,,,,,,,,novelaudio/58_kipoki3.wav,novelaudio/58_kipoki2.wav,2,,,,,,f,0.658385,0,48,48,48,1,,,,,,,,,,,,,,,,,,,,,,,,
,,,,,,,pngimages/71_eye.png,Omer Alrefaai,1048,2020-11-23_17h03.35.578,experiment,2020.1.3,Win32,60,,,,,,,,,,,,,,,,test2,,,,,,,,,,,,,,,,,,,,,,,,,,,,,,,novelaudio/71_kotato1.wav,novelaudio/71_kotato2.wav,2,,,,,,j,1.69727,0,49,49,49,1,,,,,,,,,,,,,,,,,,,,,,,,
,,,,,,,pngimages/34_knife.png,Omer Alrefaai,1048,2020-11-23_17h03.35.578,experiment,2020.1.3,Win32,60,,,,,,,,,,,,,,,,test2,,,,,,,,,,,,,,,,,,,,,,,,,,,,,,,novelaudio/34_kipaki2.wav,novelaudio/34_kipaki1.wav,1,,,,,,j,0.914655,0,50,50,50,1,,,,,,,,,,,,,,,,,,,,,,,,
,,,,,,,pngimages/33_watermelon.png,Omer Alrefaai,1048,2020-11-23_17h03.35.578,experiment,2020.1.3,Win32,60,,,,,,,,,,,,,,,,test2,,,,,,,,,,,,,,,,,,,,,,,,,,,,,,,novelaudio/33_tipoka1.wav,novelaudio/33_tipoka3.wav,2,,,,,,f,0.407325,0,51,51,51,1,,,,,,,,,,,,,,,,,,,,,,,,
,,,,,,,pngimages/30_mushroom.png,Omer Alrefaai,1048,2020-11-23_17h03.35.578,experiment,2020.1.3,Win32,60,,,,,,,,,,,,,,,,test2,,,,,,,,,,,,,,,,,,,,,,,,,,,,,,,novelaudio/30_tikipa3.wav,novelaudio/30_tikipa2.wav,1,,,,,,j,0.04466,0,52,52,52,1,,,,,,,,,,,,,,,,,,,,,,,,
,,,,,,,pngimages/38_plate.png,Omer Alrefaai,1048,2020-11-23_17h03.35.578,experiment,2020.1.3,Win32,60,,,,,,,,,,,,,,,,test2,,,,,,,,,,,,,,,,,,,,,,,,,,,,,,,novelaudio/38_kokiko2.wav,novelaudio/38_kokiko1.wav,2,,,,,,j,0.01987,0,53,53,53,1,,,,,,,,,,,,,,,,,,,,,,,,
,,,,,,,pngimages/65_wrench.png,Omer Alrefaai,1048,2020-11-23_17h03.35.578,experiment,2020.1.3,Win32,60,,,,,,,,,,,,,,,,test3,,,,,,,,,,,,,,,,,,,,,,,,,,,,,,,novelaudio/65_totipo1.wav,novelaudio/65_totipo3.wav,1,,,,,,,,,,,,,space,2.380645,f,0.311275,0,0,0,0,1,,,,,,,,,,,,,,,
,,,,,,,pngimages/68_heart.png,Omer Alrefaai,1048,2020-11-23_17h03.35.578,experiment,2020.1.3,Win32,60,,,,,,,,,,,,,,,,test3,,,,,,,,,,,,,,,,,,,,,,,,,,,,,,,novelaudio/68_pokopo2.wav,novelaudio/68_pokopo1.wav,2,,,,,,,,,,,,,,,j,0.407225,0,1,1,1,1,,,,,,,,,,,,,,,
,,,,,,,pngimages/49_calculator.png,Omer Alrefaai,1048,2020-11-23_17h03.35.578,experiment,2020.1.3,Win32,60,,,,,,,,,,,,,,,,test3,,,,,,,,,,,,,,,,,,,,,,,,,,,,,,,novelaudio/49_tatopi1.wav,novelaudio/49_tatopi3.wav,1,,,,,,,,,,,,,,,f,0.0557,0,2,2,2,1,,,,,,,,,,,,,,,
,,,,,,,pngimages/45_scissors.png,Omer Alrefaai,1048,2020-11-23_17h03.35.578,experiment,2020.1.3,Win32,60,,,,,,,,,,,,,,,,test3,,,,,,,,,,,,,,,,,,,,,,,,,,,,,,,novelaudio/45_totaka2.wav,novelaudio/45_totaka3.wav,1,,,,,,,,,,,,,,,j,0.03496,0,3,3,3,1,,,,,,,,,,,,,,,
,,,,,,,pngimages/58_nail.png,Omer Alrefaai,1048,2020-11-23_17h03.35.578,experiment,2020.1.3,Win32,60,,,,,,,,,,,,,,,,test3,,,,,,,,,,,,,,,,,,,,,,,,,,,,,,,novelaudio/58_kipoki2.wav,novelaudio/58_kipoki3.wav,1,,,,,,,,,,,,,,,f,0.101055,0,4,4,4,1,,,,,,,,,,,,,,,
,,,,,,,pngimages/31_tomato.png,Omer Alrefaai,1048,2020-11-23_17h03.35.578,experiment,2020.1.3,Win32,60,,,,,,,,,,,,,,,,test3,,,,,,,,,,,,,,,,,,,,,,,,,,,,,,,novelaudio/31_kikopi2.wav,novelaudio/31_kikopi3.wav,1,,,,,,,,,,,,,,,j,0.25279,0,5,5,5,1,,,,,,,,,,,,,,,
,,,,,,,pngimages/46_paper.png,Omer Alrefaai,1048,2020-11-23_17h03.35.578,experiment,2020.1.3,Win32,60,,,,,,,,,,,,,,,,test3,,,,,,,,,,,,,,,,,,,,,,,,,,,,,,,novelaudio/46_tapiti2.wav,novelaudio/46_tapiti1.wav,2,,,,,,,,,,,,,,,f,0.22016,0,6,6,6,1,,,,,,,,,,,,,,,
,,,,,,,pngimages/33_watermelon.png,Omer Alrefaai,1048,2020-11-23_17h03.35.578,experiment,2020.1.3,Win32,60,,,,,,,,,,,,,,,,test3,,,,,,,,,,,,,,,,,,,,,,,,,,,,,,,novelaudio/33_tipoka3.wav,novelaudio/33_tipoka2.wav,1,,,,,,,,,,,,,,,j,0.02552,0,7,7,7,1,,,,,,,,,,,,,,,
,,,,,,,pngimages/29_cherry.png,Omer Alrefaai,1048,2020-11-23_17h03.35.578,experiment,2020.1.3,Win32,60,,,,,,,,,,,,,,,,test3,,,,,,,,,,,,,,,,,,,,,,,,,,,,,,,novelaudio/29_pipito3.wav,novelaudio/29_pipito1.wav,1,,,,,,,,,,,,,,,j,0.59731,0,8,8,8,1,,,,,,,,,,,,,,,
,,,,,,,pngimages/41_piano.png,Omer Alrefaai,1048,2020-11-23_17h03.35.578,experiment,2020.1.3,Win32,60,,,,,,,,,,,,,,,,test3,,,,,,,,,,,,,,,,,,,,,,,,,,,,,,,novelaudio/41_pototo1.wav,novelaudio/41_pototo2.wav,1,,,,,,,,,,,,,,,j,0.64038,0,9,9,9,1,,,,,,,,,,,,,,,
,,,,,,,pngimages/67_laptop.png,Omer Alrefaai,1048,2020-11-23_17h03.35.578,experiment,2020.1.3,Win32,60,,,,,,,,,,,,,,,,test3,,,,,,,,,,,,,,,,,,,,,,,,,,,,,,,novelaudio/67_tokoki2.wav,novelaudio/67_tokoki1.wav,2,,,,,,,,,,,,,,,f,0.497575,0,10,10,10,1,,,,,,,,,,,,,,,
,,,,,,,pngimages/43_guitar.png,Omer Alrefaai,1048,2020-11-23_17h03.35.578,experiment,2020.1.3,Win32,60,,,,,,,,,,,,,,,,test3,,,,,,,,,,,,,,,,,,,,,,,,,,,,,,,novelaudio/43_potaki2.wav,novelaudio/43_potaki3.wav,1,,,,,,,,,,,,,,,j,1.32321,0,11,11,11,1,,,,,,,,,,,,,,,
,,,,,,,pngimages/69_tooth.png,Omer Alrefaai,1048,2020-11-23_17h03.35.578,experiment,2020.1.3,Win32,60,,,,,,,,,,,,,,,,test3,,,,,,,,,,,,,,,,,,,,,,,,,,,,,,,novelaudio/69_kotota1.wav,novelaudio/69_kotota3.wav,2,,,,,,,,,,,,,,,f,0.300055,0,12,12,12,1,,,,,,,,,,,,,,,
,,,,,,,pngimages/79_pig.png,Omer Alrefaai,1048,2020-11-23_17h03.35.578,experiment,2020.1.3,Win32,60,,,,,,,,,,,,,,,,test3,,,,,,,,,,,,,,,,,,,,,,,,,,,,,,,novelaudio/79_katapi1.wav,novelaudio/79_katapi2.wav,1,,,,,,,,,,,,,,,j,0.757865,0,13,13,13,1,,,,,,,,,,,,,,,
,,,,,,,pngimages/44_envelope.png,Omer Alrefaai,1048,2020-11-23_17h03.35.578,experiment,2020.1.3,Win32,60,,,,,,,,,,,,,,,,test3,,,,,,,,,,,,,,,,,,,,,,,,,,,,,,,novelaudio/44_pokato1.wav,novelaudio/44_pokato2.wav,2,,,,,,,,,,,,,,,f,0.322955,0,14,14,14,1,,,,,,,,,,,,,,,
,,,,,,,pngimages/80_dog.png,Omer Alrefaai,1048,2020-11-23_17h03.35.578,experiment,2020.1.3,Win32,60,,,,,,,,,,,,,,,,test3,,,,,,,,,,,,,,,,,,,,,,,,,,,,,,,novelaudio/80_tatato1.wav,novelaudio/80_tatato2.wav,1,,,,,,,,,,,,,,,j,1.47027,0,15,15,15,1,,,,,,,,,,,,,,,
,,,,,,,pngimages/55_toilet.png,Omer Alrefaai,1048,2020-11-23_17h03.35.578,experiment,2020.1.3,Win32,60,,,,,,,,,,,,,,,,test3,,,,,,,,,,,,,,,,,,,,,,,,,,,,,,,novelaudio/55_pikiki1.wav,novelaudio/55_pikiki3.wav,1,,,,,,,,,,,,,,,f,1.3174,0,16,16,16,1,,,,,,,,,,,,,,,
,,,,,,,pngimages/72_nose.png,Omer Alrefaai,1048,2020-11-23_17h03.35.578,experiment,2020.1.3,Win32,60,,,,,,,,,,,,,,,,test3,,,,,,,,,,,,,,,,,,,,,,,,,,,,,,,novelaudio/72_topata3.wav,novelaudio/72_topata2.wav,2,,,,,,,,,,,,,,,j,2.298275,0,17,17,17,1,,,,,,,,,,,,,,,
,,,,,,,pngimages/62_screwdriver.png,Omer Alrefaai,1048,2020-11-23_17h03.35.578,experiment,2020.1.3,Win32,60,,,,,,,,,,,,,,,,test3,,,,,,,,,,,,,,,,,,,,,,,,,,,,,,,novelaudio/62_pitako3.wav,novelaudio/62_pitako2.wav,2,,,,,,,,,,,,,,,f,0.01722,0,18,18,18,1,,,,,,,,,,,,,,,
,,,,,,,pngimages/35_skillet.png,Omer Alrefaai,1048,2020-11-23_17h03.35.578,experiment,2020.1.3,Win32,60,,,,,,,,,,,,,,,,test3,,,,,,,,,,,,,,,,,,,,,,,,,,,,,,,novelaudio/35_titato2.wav,novelaudio/35_titato3.wav,1,,,,,,,,,,,,,,,f,3.69693,0,19,19,19,1,,,,,,,,,,,,,,,
,,,,,,,pngimages/50_ruler.png,Omer Alrefaai,1048,2020-11-23_17h03.35.578,experiment,2020.1.3,Win32,60,,,,,,,,,,,,,,,,test3,,,,,,,,,,,,,,,,,,,,,,,,,,,,,,,novelaudio/50_katoko3.wav,novelaudio/50_katoko1.wav,2,,,,,,,,,,,,,,,j,1.067615,0,20,20,20,1,,,,,,,,,,,,,,,
,,,,,,,pngimages/59_umbrella.png,Omer Alrefaai,1048,2020-11-23_17h03.35.578,experiment,2020.1.3,Win32,60,,,,,,,,,,,,,,,,test3,,,,,,,,,,,,,,,,,,,,,,,,,,,,,,,novelaudio/59_tipoko2.wav,novelaudio/59_tipoko3.wav,1,,,,,,,,,,,,,,,f,3.71013,0,21,21,21,1,,,,,,,,,,,,,,,
,,,,,,,pngimages/47_notebook.png,Omer Alrefaai,1048,2020-11-23_17h03.35.578,experiment,2020.1.3,Win32,60,,,,,,,,,,,,,,,,test3,,,,,,,,,,,,,,,,,,,,,,,,,,,,,,,novelaudio/47_takiko3.wav,novelaudio/47_takiko1.wav,2,,,,,,,,,,,,,,,j,1.293355,0,22,22,22,1,,,,,,,,,,,,,,,
,,,,,,,pngimages/28_grape.png,Omer Alrefaai,1048,2020-11-23_17h03.35.578,experiment,2020.1.3,Win32,60,,,,,,,,,,,,,,,,test3,,,,,,,,,,,,,,,,,,,,,,,,,,,,,,,novelaudio/28_pipiki3.wav,novelaudio/28_pipiki1.wav,2,,,,,,,,,,,,,,,f,0.465455,0,23,23,23,1,,,,,,,,,,,,,,,
,,,,,,,pngimages/64_shovel.png,Omer Alrefaai,1048,2020-11-23_17h03.35.578,experiment,2020.1.3,Win32,60,,,,,,,,,,,,,,,,test3,,,,,,,,,,,,,,,,,,,,,,,,,,,,,,,novelaudio/64_popiti1.wav,novelaudio/64_popiti2.wav,1,,,,,,,,,,,,,,,j,2.47785,0,24,24,24,1,,,,,,,,,,,,,,,
,,,,,,,pngimages/34_knife.png,Omer Alrefaai,1048,2020-11-23_17h03.35.578,experiment,2020.1.3,Win32,60,,,,,,,,,,,,,,,,test3,,,,,,,,,,,,,,,,,,,,,,,,,,,,,,,novelaudio/34_kipaki2.wav,novelaudio/34_kipaki3.wav,1,,,,,,,,,,,,,,,f,1.24798,0,25,25,25,1,,,,,,,,,,,,,,,
,,,,,,,pngimages/48_brush.png,Omer Alrefaai,1048,2020-11-23_17h03.35.578,experiment,2020.1.3,Win32,60,,,,,,,,,,,,,,,,test3,,,,,,,,,,,,,,,,,,,,,,,,,,,,,,,novelaudio/48_pakipa2.wav,novelaudio/48_pakipa1.wav,2,,,,,,,,,,,,,,,f,1.021455,0,26,26,26,1,,,,,,,,,,,,,,,
,,,,,,,pngimages/56_towel.png,Omer Alrefaai,1048,2020-11-23_17h03.35.578,experiment,2020.1.3,Win32,60,,,,,,,,,,,,,,,,test3,,,,,,,,,,,,,,,,,,,,,,,,,,,,,,,novelaudio/56_pipiko2.wav,novelaudio/56_pipiko3.wav,2,,,,,,,,,,,,,,,j,2.78731,0,27,27,27,1,,,,,,,,,,,,,,,
,,,,,,,pngimages/81_cat.png,Omer Alrefaai,1048,2020-11-23_17h03.35.578,experiment,2020.1.3,Win32,60,,,,,,,,,,,,,,,,test3,,,,,,,,,,,,,,,,,,,,,,,,,,,,,,,novelaudio/81_kakapa1.wav,novelaudio/81_kakapa3.wav,1,,,,,,,,,,,,,,,f,0.81382,0,28,28,28,1,,,,,,,,,,,,,,,
,,,,,,,pngimages/32_greenpepper.png,Omer Alrefaai,1048,2020-11-23_17h03.35.578,experiment,2020.1.3,Win32,60,,,,,,,,,,,,,,,,test3,,,,,,,,,,,,,,,,,,,,,,,,,,,,,,,novelaudio/32_kipoto2.wav,novelaudio/32_kipoto3.wav,1,,,,,,,,,,,,,,,f,0.296695,0,29,29,29,1,,,,,,,,,,,,,,,
,,,,,,,pngimages/57_flashlight.png,Omer Alrefaai,1048,2020-11-23_17h03.35.578,experiment,2020.1.3,Win32,60,,,,,,,,,,,,,,,,test3,,,,,,,,,,,,,,,,,,,,,,,,,,,,,,,novelaudio/57_tipipa3.wav,novelaudio/57_tipipa1.wav,1,,,,,,,,,,,,,,,j,1.82626,0,30,30,30,1,,,,,,,,,,,,,,,
,,,,,,,pngimages/78_cow.png,Omer Alrefaai,1048,2020-11-23_17h03.35.578,experiment,2020.1.3,Win32,60,,,,,,,,,,,,,,,,test3,,,,,,,,,,,,,,,,,,,,,,,,,,,,,,,novelaudio/78_kakoka3.wav,novelaudio/78_kakoka1.wav,2,,,,,,,,,,,,,,,f,0.423465,0,31,31,31,1,,,,,,,,,,,,,,,
,,,,,,,pngimages/61_key.png,Omer Alrefaai,1048,2020-11-23_17h03.35.578,experiment,2020.1.3,Win32,60,,,,,,,,,,,,,,,,test3,,,,,,,,,,,,,,,,,,,,,,,,,,,,,,,novelaudio/61_pikati1.wav,novelaudio/61_pikati2.wav,2,,,,,,,,,,,,,,,j,2.104095,0,32,32,32,1,,,,,,,,,,,,,,,
,,,,,,,pngimages/37_mug.png,Omer Alrefaai,1048,2020-11-23_17h03.35.578,experiment,2020.1.3,Win32,60,,,,,,,,,,,,,,,,test3,,,,,,,,,,,,,,,,,,,,,,,,,,,,,,,novelaudio/37_kokiti3.wav,novelaudio/37_kokiti1.wav,2,,,,,,,,,,,,,,,f,1.481495,0,33,33,33,1,,,,,,,,,,,,,,,
,,,,,,,pngimages/39_fork.png,Omer Alrefaai,1048,2020-11-23_17h03.35.578,experiment,2020.1.3,Win32,60,,,,,,,,,,,,,,,,test3,,,,,,,,,,,,,,,,,,,,,,,,,,,,,,,novelaudio/39_kotipa2.wav,novelaudio/39_kotipa3.wav,2,,,,,,,,,,,,,,,j,0.397085,0,34,34,34,1,,,,,,,,,,,,,,,
,,,,,,,pngimages/51_pencil.png,Omer Alrefaai,1048,2020-11-23_17h03.35.578,experiment,2020.1.3,Win32,60,,,,,,,,,,,,,,,,test3,,,,,,,,,,,,,,,,,,,,,,,,,,,,,,,novelaudio/51_tapopa2.wav,novelaudio/51_tapopa1.wav,2,,,,,,,,,,,,,,,j,0.41316,0,35,35,35,1,,,,,,,,,,,,,,,
,,,,,,,pngimages/36_microwave.png,Omer Alrefaai,1048,2020-11-23_17h03.35.578,experiment,2020.1.3,Win32,60,,,,,,,,,,,,,,,,test3,,,,,,,,,,,,,,,,,,,,,,,,,,,,,,,novelaudio/36_pipapa2.wav,novelaudio/36_pipapa3.wav,1,,,,,,,,,,,,,,,f,2.3205,0,36,36,36,1,,,,,,,,,,,,,,,
,,,,,,,pngimages/53_hammer.png,Omer Alrefaai,1048,2020-11-23_17h03.35.578,experiment,2020.1.3,Win32,60,,,,,,,,,,,,,,,,test3,,,,,,,,,,,,,,,,,,,,,,,,,,,,,,,novelaudio/53_patapo3.wav,novelaudio/53_patapo1.wav,2,,,,,,,,,,,,,,,j,1.837885,0,37,37,37,1,,,,,,,,,,,,,,,
,,,,,,,pngimages/38_plate.png,Omer Alrefaai,1048,2020-11-23_17h03.35.578,experiment,2020.1.3,Win32,60,,,,,,,,,,,,,,,,test3,,,,,,,,,,,,,,,,,,,,,,,,,,,,,,,novelaudio/38_kokiko2.wav,novelaudio/38_kokiko1.wav,2,,,,,,,,,,,,,,,f,0.60601,0,38,38,38,1,,,,,,,,,,,,,,,
,,,,,,,pngimages/74_boat.png,Omer Alrefaai,1048,2020-11-23_17h03.35.578,experiment,2020.1.3,Win32,60,,,,,,,,,,,,,,,,test3,,,,,,,,,,,,,,,,,,,,,,,,,,,,,,,novelaudio/74_tatiko1.wav,novelaudio/74_tatiko2.wav,1,,,,,,,,,,,,,,,j,2.25314,0,39,39,39,1,,,,,,,,,,,,,,,
,,,,,,,pngimages/63_chair.png,Omer Alrefaai,1048,2020-11-23_17h03.35.578,experiment,2020.1.3,Win32,60,,,,,,,,,,,,,,,,test3,,,,,,,,,,,,,,,,,,,,,,,,,,,,,,,novelaudio/63_pitapa1.wav,novelaudio/63_pitapa2.wav,2,,,,,,,,,,,,,,,j,0.17977,0,40,40,40,1,,,,,,,,,,,,,,,
,,,,,,,pngimages/77_bear.png,Omer Alrefaai,1048,2020-11-23_17h03.35.578,experiment,2020.1.3,Win32,60,,,,,,,,,,,,,,,,test3,,,,,,,,,,,,,,,,,,,,,,,,,,,,,,,novelaudio/77_takopo3.wav,novelaudio/77_takopo1.wav,2,,,,,,,,,,,,,,,f,0.58116,0,41,41,41,1,,,,,,,,,,,,,,,
,,,,,,,pngimages/52_newspaper.png,Omer Alrefaai,1048,2020-11-23_17h03.35.578,experiment,2020.1.3,Win32,60,,,,,,,,,,,,,,,,test3,,,,,,,,,,,,,,,,,,,,,,,,,,,,,,,novelaudio/52_pakaki1.wav,novelaudio/52_pakaki3.wav,1,,,,,,,,,,,,,,,j,1.073235,0,42,42,42,1,,,,,,,,,,,,,,,
,,,,,,,pngimages/30_mushroom.png,Omer Alrefaai,1048,2020-11-23_17h03.35.578,experiment,2020.1.3,Win32,60,,,,,,,,,,,,,,,,test3,,,,,,,,,,,,,,,,,,,,,,,,,,,,,,,novelaudio/30_tikipa3.wav,novelaudio/30_tikipa2.wav,1,,,,,,,,,,,,,,,f,0.74236,0,43,43,43,1,,,,,,,,,,,,,,,
,,,,,,,pngimages/70_hand.png,Omer Alrefaai,1048,2020-11-23_17h03.35.578,experiment,2020.1.3,Win32,60,,,,,,,,,,,,,,,,test3,,,,,,,,,,,,,,,,,,,,,,,,,,,,,,,novelaudio/70_kopati3.wav,novelaudio/70_kopati2.wav,2,,,,,,,,,,,,,,,j,0.615275,0,44,44,44,1,,,,,,,,,,,,,,,
,,,,,,,pngimages/60_firewood.png,Omer Alrefaai,1048,2020-11-23_17h03.35.578,experiment,2020.1.3,Win32,60,,,,,,,,,,,,,,,,test3,,,,,,,,,,,,,,,,,,,,,,,,,,,,,,,novelaudio/60_pipopa3.wav,novelaudio/60_pipopa1.wav,1,,,,,,,,,,,,,,,f,2.85,0,45,45,45,1,,,,,,,,,,,,,,,
,,,,,,,pngimages/75_chicken.png,Omer Alrefaai,1048,2020-11-23_17h03.35.578,experiment,2020.1.3,Win32,60,,,,,,,,,,,,,,,,test3,,,,,,,,,,,,,,,,,,,,,,,,,,,,,,,novelaudio/75_kakita3.wav,novelaudio/75_kakita1.wav,2,,,,,,,,,,,,,,,j,1.017775,0,46,46,46,1,,,,,,,,,,,,,,,
,,,,,,,pngimages/54_toiletpaper.png,Omer Alrefaai,1048,2020-11-23_17h03.35.578,experiment,2020.1.3,Win32,60,,,,,,,,,,,,,,,,test3,,,,,,,,,,,,,,,,,,,,,,,,,,,,,,,novelaudio/54_kapapa3.wav,novelaudio/54_kapapa1.wav,2,,,,,,,,,,,,,,,j,2.34417,0,47,47,47,1,,,,,,,,,,,,,,,
,,,,,,,pngimages/71_eye.png,Omer Alrefaai,1048,2020-11-23_17h03.35.578,experiment,2020.1.3,Win32,60,,,,,,,,,,,,,,,,test3,,,,,,,,,,,,,,,,,,,,,,,,,,,,,,,novelaudio/71_kotato1.wav,novelaudio/71_kotato2.wav,2,,,,,,,,,,,,,,,f,1.27243,0,48,48,48,1,,,,,,,,,,,,,,,
,,,,,,,pngimages/42_harp.png,Omer Alrefaai,1048,2020-11-23_17h03.35.578,experiment,2020.1.3,Win32,60,,,,,,,,,,,,,,,,test3,,,,,,,,,,,,,,,,,,,,,,,,,,,,,,,novelaudio/42_tokota3.wav,novelaudio/42_tokota1.wav,1,,,,,,,,,,,,,,,f,2.309605,0,49,49,49,1,,,,,,,,,,,,,,,
,,,,,,,pngimages/66_safe.png,Omer Alrefaai,1048,2020-11-23_17h03.35.578,experiment,2020.1.3,Win32,60,,,,,,,,,,,,,,,,test3,,,,,,,,,,,,,,,,,,,,,,,,,,,,,,,novelaudio/66_kopipa3.wav,novelaudio/66_kopipa2.wav,1,,,,,,,,,,,,,,,j,0.10878,0,50,50,50,1,,,,,,,,,,,,,,,
,,,,,,,pngimages/73_car.png,Omer Alrefaai,1048,2020-11-23_17h03.35.578,experiment,2020.1.3,Win32,60,,,,,,,,,,,,,,,,test3,,,,,,,,,,,,,,,,,,,,,,,,,,,,,,,novelaudio/73_takiti2.wav,novelaudio/73_takiti1.wav,2,,,,,,,,,,,,,,,j,0.19689,0,51,51,51,1,,,,,,,,,,,,,,,
,,,,,,,pngimages/40_spoon.png,Omer Alrefaai,1048,2020-11-23_17h03.35.578,experiment,2020.1.3,Win32,60,,,,,,,,,,,,,,,,test3,,,,,,,,,,,,,,,,,,,,,,,,,,,,,,,novelaudio/40_kototi2.wav,novelaudio/40_kototi1.wav,2,,,,,,,,,,,,,,,f,1.791785,0,52,52,52,1,,,,,,,,,,,,,,,
,,,,,,,pngimages/76_rabbit.png,Omer Alrefaai,1048,2020-11-23_17h03.35.578,experiment,2020.1.3,Win32,60,,,,,,,,,,,,,,,,test3,,,,,,,,,,,,,,,,,,,,,,,,,,,,,,,novelaudio/76_patoti1.wav,novelaudio/76_patoti2.wav,1,,,,,,,,,,,,,,,f,4.727445,0,53,53,53,1,,,,,,,,,,,,,,,
,,,,,,,,Omer Alrefaai,1048,2020-11-23_17h03.35.578,experiment,2020.1.3,Win32,60,,,,,,,,,,,,,,,,postTest,,,,,,,,,,,,,,,,,,,,,,,,,,,,,,,,,,,,,,,,,,,,,,,,,,,,,,,j,8.459555,j,0.456255,0,0,0,0,1,postTest/82_tipiko1.wav,postTest/82_tipiko1.wav,postTest/82_tipiko3.wav,audioA,,
,,,,,,,,Omer Alrefaai,1048,2020-11-23_17h03.35.578,experiment,2020.1.3,Win32,60,,,,,,,,,,,,,,,,postTest,,,,,,,,,,,,,,,,,,,,,,,,,,,,,,,,,,,,,,,,,,,,,,,,,,,,,,,,,f,0.40507,0,1,1,1,1,postTest/83_pitita3.wav,postTest/83_pitita3.wav,postTest/83_pitita2.wav,audioA,,
,,,,,,,,Omer Alrefaai,1048,2020-11-23_17h03.35.578,experiment,2020.1.3,Win32,60,,,,,,,,,,,,,,,,postTest,,,,,,,,,,,,,,,,,,,,,,,,,,,,,,,,,,,,,,,,,,,,,,,,,,,,,,,,,j,2.65677,0,2,2,2,1,postTest/84_pitoka3.wav,postTest/84_pitoka1.wav,postTest/84_pitoka1.wav,audioB,,
,,,,,,,,Omer Alrefaai,1048,2020-11-23_17h03.35.578,experiment,2020.1.3,Win32,60,,,,,,,,,,,,,,,,postTest,,,,,,,,,,,,,,,,,,,,,,,,,,,,,,,,,,,,,,,,,,,,,,,,,,,,,,,,,f,2.03632,0,3,3,3,1,postTest/85_kipata2.wav,postTest/85_kipata2.wav,postTest/85_kipata3.wav,audioA,,
,,,,,,,,Omer Alrefaai,1048,2020-11-23_17h03.35.578,experiment,2020.1.3,Win32,60,,,,,,,,,,,,,,,,postTest,,,,,,,,,,,,,,,,,,,,,,,,,,,,,,,,,,,,,,,,,,,,,,,,,,,,,,,,,j,0.11102,0,4,4,4,1,postTest/86_totipa2.wav,postTest/86_totipa1.wav,postTest/86_totipa1.wav,audioB,,
,,,,,,,,Omer Alrefaai,1048,2020-11-23_17h03.35.578,experiment,2020.1.3,Win32,60,,,,,,,,,,,,,,,,postTest,,,,,,,,,,,,,,,,,,,,,,,,,,,,,,,,,,,,,,,,,,,,,,,,,,,,,,,,,j,0.08714,0,5,5,5,1,postTest/87_kopoko1.wav,postTest/87_kopoko3.wav,postTest/87_kopoko3.wav,audioB,,
,,,,,,,,Omer Alrefaai,1048,2020-11-23_17h03.35.578,experiment,2020.1.3,Win32,60,,,,,,,,,,,,,,,,postTest,,,,,,,,,,,,,,,,,,,,,,,,,,,,,,,,,,,,,,,,,,,,,,,,,,,,,,,,,f,0.079295,0,6,6,6,1,postTest/88_pokota2.wav,postTest/88_pokota2.wav,postTest/88_pokota1.wav,audioA,,
,,,,,,,,Omer Alrefaai,1048,2020-11-23_17h03.35.578,experiment,2020.1.3,Win32,60,,,,,,,,,,,,,,,,postTest,,,,,,,,,,,,,,,,,,,,,,,,,,,,,,,,,,,,,,,,,,,,,,,,,,,,,,,,,j,0.241795,0,7,7,7,1,postTest/89_totako3.wav,postTest/89_totako2.wav,postTest/89_totako2.wav,audioB,,
,,,,,,,,Omer Alrefaai,1048,2020-11-23_17h03.35.578,experiment,2020.1.3,Win32,60,,,,,,,,,,,,,,,,postTest,,,,,,,,,,,,,,,,,,,,,,,,,,,,,,,,,,,,,,,,,,,,,,,,,,,,,,,,,j,0.05313,0,8,8,8,1,postTest/90_papiki2.wav,postTest/90_papiki3.wav,postTest/90_papiki3.wav,audioB,,
,,,,,,,,Omer Alrefaai,1048,2020-11-23_17h03.35.578,experiment,2020.1.3,Win32,60,,,,,,,,,,,,,,,,postTest,,,,,,,,,,,,,,,,,,,,,,,,,,,,,,,,,,,,,,,,,,,,,,,,,,,,,,,,,f,0.170015,0,9,9,9,1,postTest/91_papipo1.wav,postTest/91_papipo1.wav,postTest/91_papipo2.wav,audioA,,
,,,,,,,,Omer Alrefaai,1048,2020-11-23_17h03.35.578,experiment,2020.1.3,Win32,60,,,,,,,,,,,,,,,,postTest,,,,,,,,,,,,,,,,,,,,,,,,,,,,,,,,,,,,,,,,,,,,,,,,,,,,,,,,,j,0.29698,0,10,10,10,1,postTest/92_katoki1.wav,postTest/92_katoki2.wav,postTest/92_katoki2.wav,audioB,,
,,,,,,,,Omer Alrefaai,1048,2020-11-23_17h03.35.578,experiment,2020.1.3,Win32,60,,,,,,,,,,,,,,,,postTest,,,,,,,,,,,,,,,,,,,,,,,,,,,,,,,,,,,,,,,,,,,,,,,,,,,,,,,,,f,0.141975,0,11,11,11,1,postTest/93_pakopa3.wav,postTest/93_pakopa3.wav,postTest/93_pakopa1.wav,audioA,,
,,,,,,,,Omer Alrefaai,1048,2020-11-23_17h03.35.578,experiment,2020.1.3,Win32,60,,,,,,,,,,,,,,,,,,,,,,,,,,,,,,,,,,,,,,,,,,,,,,,,,,,,,,,,,,,,,,,,,,,,,,,,,,,,,,,,,,,,space,1.613595
