skipTrain1Type.keys,train1Words.thisRepN,train1Words.thisTrialN,train1Words.thisN,train1Words.thisIndex,train1Words.ran,audio,imageLoc,participant,ID Number,date,expName,psychopyVersion,OS,frameRate,train1QuestAdvance.keys,train1QuestAdvance.rt,break_loop.thisRepN,break_loop.thisTrialN,break_loop.thisN,break_loop.thisIndex,break_loop.ran,train1Response.keys,train1Response.rt,train1Questions.thisRepN,train1Questions.thisTrialN,train1Questions.thisN,train1Questions.thisIndex,train1Questions.ran,audioTrue,imageTrue,currentPhase,imageFalse,truePos,falsePos,trial1phases.thisRepN,trial1phases.thisTrialN,trial1phases.thisN,trial1phases.thisIndex,trial1phases.ran,condFiles,testFiles,alltrain1.thisRepN,alltrain1.thisTrialN,alltrain1.thisN,alltrain1.thisIndex,alltrain1.ran,condFile,numWords,skipTest1Instr.keys,skipTest1Instr.rt,key_resp.keys,key_resp.rt,test1Response.keys,test1Response.rt,test1Loop.thisRepN,test1Loop.thisTrialN,test1Loop.thisN,test1Loop.thisIndex,test1Loop.ran,firstAudio,secondAudio,whichAudio,feedback,skipTest2Instr.keys,skipTest2Instr.rt,key_resp_2.keys,key_resp_2.rt,test2Response.keys,test2Response.rt,test2Loop.thisRepN,test2Loop.thisTrialN,test2Loop.thisN,test2Loop.thisIndex,test2Loop.ran,skipTest3Instr.keys,skipTest3Instr.rt,test3Response.keys,test3Response.rt,test3Loop.thisRepN,test3Loop.thisTrialN,test3Loop.thisN,test3Loop.thisIndex,test3Loop.ran,skipPostTestInstr.keys,skipPostTestInstr.rt,postTestResponse.keys,postTestResponse.rt,postTestLoop.thisRepN,postTestLoop.thisTrialN,postTestLoop.thisN,postTestLoop.thisIndex,postTestLoop.ran,audioA,audioX,audioB,correctLabel,quit.keys,quit.rt
,0,0,0,0,1,trainingaudio/06_titoka3.wav,pngimages/06_tent.png,Gwen Wojtkun,1098,2021-02-12_15h20.00.756,experiment,2020.1.3,MacIntel,60,,,,,,,,,,,,,,,,,,,,,,,,,,,,,,,,,,,,,,,,,,,,,,,,,,,,,,,,,,,,,,,,,,,,,,,,,,,,,,,,,,,,
,,,,,,,,Gwen Wojtkun,1098,2021-02-12_15h20.00.756,experiment,2020.1.3,MacIntel,60,space,14.01665,0,0,0,0,1,,,,,,,,,,,,,,,,,,,,,,,,,,,,,,,,,,,,,,,,,,,,,,,,,,,,,,,,,,,,,,,,,,,,,,,,,,,,,
,,,,,,,,Gwen Wojtkun,1098,2021-02-12_15h20.00.756,experiment,2020.1.3,MacIntel,60,,,,,,,,f,1.13753,0,0,0,0,1,trainingaudio/19_papipi1.wav,pngimages/19_burger.png,train1P1,pngimages/06_tent.png,-0.5,0.5,,,,,,,,,,,,,,,,,,,,,,,,,,,,,,,,,,,,,,,,,,,,,,,,,,,,,,,,,,,,,,,,
,,,,,,,,Gwen Wojtkun,1098,2021-02-12_15h20.00.756,experiment,2020.1.3,MacIntel,60,,,,,,,,,,,,,,,,,,,,,0,0,0,0,1,aoiConditions/train1P1Block1.xlsx,aoiConditions/train1P1Block1Test.xlsx,,,,,,,,,,,,,,,,,,,,,,,,,,,,,,,,,,,,,,,,,,,,,,,,,,,,,,,,,
,0,0,0,0,1,trainingaudio/23_patoko1.wav,pngimages/23_lemon.png,Gwen Wojtkun,1098,2021-02-12_15h20.00.756,experiment,2020.1.3,MacIntel,60,,,,,,,,,,,,,,,,,,,,,,,,,,,,,,,,,,,,,,,,,,,,,,,,,,,,,,,,,,,,,,,,,,,,,,,,,,,,,,,,,,,,
,,,,,,,,Gwen Wojtkun,1098,2021-02-12_15h20.00.756,experiment,2020.1.3,MacIntel,60,,,0,0,0,0,1,,,,,,,,,,,,,,,,,,,,,,,,,,,,,,,,,,,,,,,,,,,,,,,,,,,,,,,,,,,,,,,,,,,,,,,,,,,,,
,,,,,,,,Gwen Wojtkun,1098,2021-02-12_15h20.00.756,experiment,2020.1.3,MacIntel,60,,,,,,,,j,0.887325,0,0,0,0,1,trainingaudio/23_patoko1.wav,pngimages/23_lemon.png,train1P1,pngimages/22_egg.png,0.5,-0.5,,,,,,,,,,,,,,,,,,,,,,,,,,,,,,,,,,,,,,,,,,,,,,,,,,,,,,,,,,,,,,,,
,,,,,,,,Gwen Wojtkun,1098,2021-02-12_15h20.00.756,experiment,2020.1.3,MacIntel,60,,,,,,,,,,,,,,,,,,,,,0,1,1,1,1,aoiConditions/train1P1Block2.xlsx,aoiConditions/train1P1Block2Test.xlsx,,,,,,,,,,,,,,,,,,,,,,,,,,,,,,,,,,,,,,,,,,,,,,,,,,,,,,,,,
,0,0,0,0,1,trainingaudio/25_tapapi1.wav,pngimages/25_apple.png,Gwen Wojtkun,1098,2021-02-12_15h20.00.756,experiment,2020.1.3,MacIntel,60,,,,,,,,,,,,,,,,,,,,,,,,,,,,,,,,,,,,,,,,,,,,,,,,,,,,,,,,,,,,,,,,,,,,,,,,,,,,,,,,,,,,
,,,,,,,,Gwen Wojtkun,1098,2021-02-12_15h20.00.756,experiment,2020.1.3,MacIntel,60,,,0,0,0,0,1,,,,,,,,,,,,,,,,,,,,,,,,,,,,,,,,,,,,,,,,,,,,,,,,,,,,,,,,,,,,,,,,,,,,,,,,,,,,,
,,,,,,,,Gwen Wojtkun,1098,2021-02-12_15h20.00.756,experiment,2020.1.3,MacIntel,60,,,,,,,,j,0.636845,0,0,0,0,1,trainingaudio/26_kapako1.wav,pngimages/26_pineapple.png,train1P1,pngimages/25_apple.png,0.5,-0.5,,,,,,,,,,,,,,,,,,,,,,,,,,,,,,,,,,,,,,,,,,,,,,,,,,,,,,,,,,,,,,,,
,,,,,,,,Gwen Wojtkun,1098,2021-02-12_15h20.00.756,experiment,2020.1.3,MacIntel,60,,,,,,,,,,,,,,,,,,,,,0,2,2,2,1,aoiConditions/train1P1Block3.xlsx,aoiConditions/train1P1Block3Test.xlsx,,,,,,,,,,,,,,,,,,,,,,,,,,,,,,,,,,,,,,,,,,,,,,,,,,,,,,,,,
,0,0,0,0,1,trainingaudio/17_kotako2.wav,pngimages/17_cracker.png,Gwen Wojtkun,1098,2021-02-12_15h20.00.756,experiment,2020.1.3,MacIntel,60,,,,,,,,,,,,,,,,,,,,,,,,,,,,,,,,,,,,,,,,,,,,,,,,,,,,,,,,,,,,,,,,,,,,,,,,,,,,,,,,,,,,
,,,,,,,,Gwen Wojtkun,1098,2021-02-12_15h20.00.756,experiment,2020.1.3,MacIntel,60,,,0,0,0,0,1,,,,,,,,,,,,,,,,,,,,,,,,,,,,,,,,,,,,,,,,,,,,,,,,,,,,,,,,,,,,,,,,,,,,,,,,,,,,,
,,,,,,,,Gwen Wojtkun,1098,2021-02-12_15h20.00.756,experiment,2020.1.3,MacIntel,60,,,,,,,,j,0.721015,0,0,0,0,1,trainingaudio/18_popata2.wav,pngimages/18_donut.png,train1P1,pngimages/17_cracker.png,0.5,-0.5,,,,,,,,,,,,,,,,,,,,,,,,,,,,,,,,,,,,,,,,,,,,,,,,,,,,,,,,,,,,,,,,
,,,,,,,,Gwen Wojtkun,1098,2021-02-12_15h20.00.756,experiment,2020.1.3,MacIntel,60,,,,,,,,,,,,,,,,,,,,,0,3,3,3,1,aoiConditions/train1P1Block4.xlsx,aoiConditions/train1P1Block4Test.xlsx,,,,,,,,,,,,,,,,,,,,,,,,,,,,,,,,,,,,,,,,,,,,,,,,,,,,,,,,,
,0,0,0,0,1,trainingaudio/09_tipata2.wav,pngimages/09_plane.png,Gwen Wojtkun,1098,2021-02-12_15h20.00.756,experiment,2020.1.3,MacIntel,60,,,,,,,,,,,,,,,,,,,,,,,,,,,,,,,,,,,,,,,,,,,,,,,,,,,,,,,,,,,,,,,,,,,,,,,,,,,,,,,,,,,,
,,,,,,,,Gwen Wojtkun,1098,2021-02-12_15h20.00.756,experiment,2020.1.3,MacIntel,60,,,0,0,0,0,1,,,,,,,,,,,,,,,,,,,,,,,,,,,,,,,,,,,,,,,,,,,,,,,,,,,,,,,,,,,,,,,,,,,,,,,,,,,,,
,,,,,,,,Gwen Wojtkun,1098,2021-02-12_15h20.00.756,experiment,2020.1.3,MacIntel,60,,,,,,,,j,0.834145,0,0,0,0,1,trainingaudio/24_takopa1.wav,pngimages/24_banana.png,train1P1,pngimages/09_plane.png,0.5,-0.5,,,,,,,,,,,,,,,,,,,,,,,,,,,,,,,,,,,,,,,,,,,,,,,,,,,,,,,,,,,,,,,,
,,,,,,,,Gwen Wojtkun,1098,2021-02-12_15h20.00.756,experiment,2020.1.3,MacIntel,60,,,,,,,,,,,,,,,,,,,,,0,4,4,4,1,aoiConditions/train1P1Block5.xlsx,aoiConditions/train1P1Block5Test.xlsx,,,,,,,,,,,,,,,,,,,,,,,,,,,,,,,,,,,,,,,,,,,,,,,,,,,,,,,,,
,0,0,0,0,1,trainingaudio/08_tipako2.wav,pngimages/08_bell.png,Gwen Wojtkun,1098,2021-02-12_15h20.00.756,experiment,2020.1.3,MacIntel,60,,,,,,,,,,,,,,,,,,,,,,,,,,,,,,,,,,,,,,,,,,,,,,,,,,,,,,,,,,,,,,,,,,,,,,,,,,,,,,,,,,,,
,,,,,,,,Gwen Wojtkun,1098,2021-02-12_15h20.00.756,experiment,2020.1.3,MacIntel,60,,,0,0,0,0,1,,,,,,,,,,,,,,,,,,,,,,,,,,,,,,,,,,,,,,,,,,,,,,,,,,,,,,,,,,,,,,,,,,,,,,,,,,,,,
,,,,,,,,Gwen Wojtkun,1098,2021-02-12_15h20.00.756,experiment,2020.1.3,MacIntel,60,,,,,,,,f,0.936675,0,0,0,0,1,trainingaudio/08_tipako2.wav,pngimages/08_bell.png,train1P1,pngimages/03_box.png,-0.5,0.5,,,,,,,,,,,,,,,,,,,,,,,,,,,,,,,,,,,,,,,,,,,,,,,,,,,,,,,,,,,,,,,,
,,,,,,,,Gwen Wojtkun,1098,2021-02-12_15h20.00.756,experiment,2020.1.3,MacIntel,60,,,,,,,,,,,,,,,,,,,,,0,5,5,5,1,aoiConditions/train1P1Block6.xlsx,aoiConditions/train1P1Block6Test.xlsx,,,,,,,,,,,,,,,,,,,,,,,,,,,,,,,,,,,,,,,,,,,,,,,,,,,,,,,,,
,0,0,0,0,1,trainingaudio/10_tokiti1.wav,pngimages/10_backpack.png,Gwen Wojtkun,1098,2021-02-12_15h20.00.756,experiment,2020.1.3,MacIntel,60,,,,,,,,,,,,,,,,,,,,,,,,,,,,,,,,,,,,,,,,,,,,,,,,,,,,,,,,,,,,,,,,,,,,,,,,,,,,,,,,,,,,
,,,,,,,,Gwen Wojtkun,1098,2021-02-12_15h20.00.756,experiment,2020.1.3,MacIntel,60,,,0,0,0,0,1,,,,,,,,,,,,,,,,,,,,,,,,,,,,,,,,,,,,,,,,,,,,,,,,,,,,,,,,,,,,,,,,,,,,,,,,,,,,,
,,,,,,,,Gwen Wojtkun,1098,2021-02-12_15h20.00.756,experiment,2020.1.3,MacIntel,60,,,,,,,,j,0.70287,0,0,0,0,1,trainingaudio/13_kopopi1.wav,pngimages/13_toast.png,train1P1,pngimages/10_backpack.png,0.5,-0.5,,,,,,,,,,,,,,,,,,,,,,,,,,,,,,,,,,,,,,,,,,,,,,,,,,,,,,,,,,,,,,,,
,,,,,,,,Gwen Wojtkun,1098,2021-02-12_15h20.00.756,experiment,2020.1.3,MacIntel,60,,,,,,,,,,,,,,,,,,,,,0,6,6,6,1,aoiConditions/train1P1Block7.xlsx,aoiConditions/train1P1Block7Test.xlsx,,,,,,,,,,,,,,,,,,,,,,,,,,,,,,,,,,,,,,,,,,,,,,,,,,,,,,,,,
,0,0,0,0,1,trainingaudio/04_kitoti2.wav,pngimages/04_ladder.png,Gwen Wojtkun,1098,2021-02-12_15h20.00.756,experiment,2020.1.3,MacIntel,60,,,,,,,,,,,,,,,,,,,,,,,,,,,,,,,,,,,,,,,,,,,,,,,,,,,,,,,,,,,,,,,,,,,,,,,,,,,,,,,,,,,,
,,,,,,,,Gwen Wojtkun,1098,2021-02-12_15h20.00.756,experiment,2020.1.3,MacIntel,60,,,0,0,0,0,1,,,,,,,,,,,,,,,,,,,,,,,,,,,,,,,,,,,,,,,,,,,,,,,,,,,,,,,,,,,,,,,,,,,,,,,,,,,,,
,,,,,,,,Gwen Wojtkun,1098,2021-02-12_15h20.00.756,experiment,2020.1.3,MacIntel,60,,,,,,,,f,2.075735,0,0,0,0,1,trainingaudio/12_pokika3.wav,pngimages/12_pie.png,train1P1,pngimages/04_ladder.png,-0.5,0.5,,,,,,,,,,,,,,,,,,,,,,,,,,,,,,,,,,,,,,,,,,,,,,,,,,,,,,,,,,,,,,,,
,,,,,,,,Gwen Wojtkun,1098,2021-02-12_15h20.00.756,experiment,2020.1.3,MacIntel,60,,,,,,,,,,,,,,,,,,,,,0,7,7,7,1,aoiConditions/train1P1Block8.xlsx,aoiConditions/train1P1Block8Test.xlsx,,,,,,,,,,,,,,,,,,,,,,,,,,,,,,,,,,,,,,,,,,,,,,,,,,,,,,,,,
,0,0,0,0,1,trainingaudio/07_pitapi2.wav,pngimages/07_suitcase.png,Gwen Wojtkun,1098,2021-02-12_15h20.00.756,experiment,2020.1.3,MacIntel,60,,,,,,,,,,,,,,,,,,,,,,,,,,,,,,,,,,,,,,,,,,,,,,,,,,,,,,,,,,,,,,,,,,,,,,,,,,,,,,,,,,,,
,,,,,,,,Gwen Wojtkun,1098,2021-02-12_15h20.00.756,experiment,2020.1.3,MacIntel,60,,,0,0,0,0,1,,,,,,,,,,,,,,,,,,,,,,,,,,,,,,,,,,,,,,,,,,,,,,,,,,,,,,,,,,,,,,,,,,,,,,,,,,,,,
,,,,,,,,Gwen Wojtkun,1098,2021-02-12_15h20.00.756,experiment,2020.1.3,MacIntel,60,,,,,,,,f,0.62349,0,0,0,0,1,trainingaudio/02_pitito3.wav,pngimages/02_pallet.png,train1P1,pngimages/07_suitcase.png,-0.5,0.5,,,,,,,,,,,,,,,,,,,,,,,,,,,,,,,,,,,,,,,,,,,,,,,,,,,,,,,,,,,,,,,,
,,,,,,,,Gwen Wojtkun,1098,2021-02-12_15h20.00.756,experiment,2020.1.3,MacIntel,60,,,,,,,,,,,,,,,,,,,,,0,8,8,8,1,aoiConditions/train1P1Block9.xlsx,aoiConditions/train1P1Block9Test.xlsx,,,,,,,,,,,,,,,,,,,,,,,,,,,,,,,,,,,,,,,,,,,,,,,,,,,,,,,,,
,0,0,0,0,1,trainingaudio/01_kitipi1.wav,pngimages/01_gift.png,Gwen Wojtkun,1098,2021-02-12_15h20.00.756,experiment,2020.1.3,MacIntel,60,,,,,,,,,,,,,,,,,,,,,,,,,,,,,,,,,,,,,,,,,,,,,,,,,,,,,,,,,,,,,,,,,,,,,,,,,,,,,,,,,,,,
,,,,,,,,Gwen Wojtkun,1098,2021-02-12_15h20.00.756,experiment,2020.1.3,MacIntel,60,,,0,0,0,0,1,,,,,,,,,,,,,,,,,,,,,,,,,,,,,,,,,,,,,,,,,,,,,,,,,,,,,,,,,,,,,,,,,,,,,,,,,,,,,
,,,,,,,,Gwen Wojtkun,1098,2021-02-12_15h20.00.756,experiment,2020.1.3,MacIntel,60,,,,,,,,f,0.69221,0,0,0,0,1,trainingaudio/01_kitipi1.wav,pngimages/01_gift.png,train1P1,pngimages/21_cheese.png,-0.5,0.5,,,,,,,,,,,,,,,,,,,,,,,,,,,,,,,,,,,,,,,,,,,,,,,,,,,,,,,,,,,,,,,,
,,,,,,,,Gwen Wojtkun,1098,2021-02-12_15h20.00.756,experiment,2020.1.3,MacIntel,60,,,,,,,,,,,,,,,,,,,,,0,9,9,9,1,aoiConditions/train1P1Block10.xlsx,aoiConditions/train1P1Block10Test.xlsx,,,,,,,,,,,,,,,,,,,,,,,,,,,,,,,,,,,,,,,,,,,,,,,,,,,,,,,,,
,0,0,0,0,1,trainingaudio/27_pakapa1.wav,pngimages/27_kiwi.png,Gwen Wojtkun,1098,2021-02-12_15h20.00.756,experiment,2020.1.3,MacIntel,60,,,,,,,,,,,,,,,,,,,,,,,,,,,,,,,,,,,,,,,,,,,,,,,,,,,,,,,,,,,,,,,,,,,,,,,,,,,,,,,,,,,,
,,,,,,,,Gwen Wojtkun,1098,2021-02-12_15h20.00.756,experiment,2020.1.3,MacIntel,60,,,0,0,0,0,1,,,,,,,,,,,,,,,,,,,,,,,,,,,,,,,,,,,,,,,,,,,,,,,,,,,,,,,,,,,,,,,,,,,,,,,,,,,,,
,,,,,,,,Gwen Wojtkun,1098,2021-02-12_15h20.00.756,experiment,2020.1.3,MacIntel,60,,,,,,,,j,1.16919,0,0,0,0,1,trainingaudio/27_pakapa1.wav,pngimages/27_kiwi.png,train1P1,pngimages/15_barrel.png,0.5,-0.5,,,,,,,,,,,,,,,,,,,,,,,,,,,,,,,,,,,,,,,,,,,,,,,,,,,,,,,,,,,,,,,,
,,,,,,,,Gwen Wojtkun,1098,2021-02-12_15h20.00.756,experiment,2020.1.3,MacIntel,60,,,,,,,,,,,,,,,,,,,,,0,10,10,10,1,aoiConditions/train1P1Block11.xlsx,aoiConditions/train1P1Block11Test.xlsx,,,,,,,,,,,,,,,,,,,,,,,,,,,,,,,,,,,,,,,,,,,,,,,,,,,,,,,,,
,0,0,0,0,1,trainingaudio/05_titopo2.wav,pngimages/05_megaphone.png,Gwen Wojtkun,1098,2021-02-12_15h20.00.756,experiment,2020.1.3,MacIntel,60,,,,,,,,,,,,,,,,,,,,,,,,,,,,,,,,,,,,,,,,,,,,,,,,,,,,,,,,,,,,,,,,,,,,,,,,,,,,,,,,,,,,
,,,,,,,,Gwen Wojtkun,1098,2021-02-12_15h20.00.756,experiment,2020.1.3,MacIntel,60,,,0,0,0,0,1,,,,,,,,,,,,,,,,,,,,,,,,,,,,,,,,,,,,,,,,,,,,,,,,,,,,,,,,,,,,,,,,,,,,,,,,,,,,,
,,,,,,,,Gwen Wojtkun,1098,2021-02-12_15h20.00.756,experiment,2020.1.3,MacIntel,60,,,,,,,,j,0.74256,0,0,0,0,1,trainingaudio/16_kokapi2.wav,pngimages/16_icecream.png,train1P1,pngimages/05_megaphone.png,0.5,-0.5,,,,,,,,,,,,,,,,,,,,,,,,,,,,,,,,,,,,,,,,,,,,,,,,,,,,,,,,,,,,,,,,
,,,,,,,,Gwen Wojtkun,1098,2021-02-12_15h20.00.756,experiment,2020.1.3,MacIntel,60,,,,,,,,,,,,,,,,,,,,,0,11,11,11,1,aoiConditions/train1P1Block12.xlsx,aoiConditions/train1P1Block12Test.xlsx,,,,,,,,,,,,,,,,,,,,,,,,,,,,,,,,,,,,,,,,,,,,,,,,,,,,,,,,,
,0,0,0,0,1,trainingaudio/11_tokiko1.wav,pngimages/11_compass.png,Gwen Wojtkun,1098,2021-02-12_15h20.00.756,experiment,2020.1.3,MacIntel,60,,,,,,,,,,,,,,,,,,,,,,,,,,,,,,,,,,,,,,,,,,,,,,,,,,,,,,,,,,,,,,,,,,,,,,,,,,,,,,,,,,,,
,,,,,,,,Gwen Wojtkun,1098,2021-02-12_15h20.00.756,experiment,2020.1.3,MacIntel,60,,,0,0,0,0,1,,,,,,,,,,,,,,,,,,,,,,,,,,,,,,,,,,,,,,,,,,,,,,,,,,,,,,,,,,,,,,,,,,,,,,,,,,,,,
,,,,,,,,Gwen Wojtkun,1098,2021-02-12_15h20.00.756,experiment,2020.1.3,MacIntel,60,,,,,,,,j,0.71932,0,0,0,0,1,trainingaudio/20_tatito1.wav,pngimages/20_pizza.png,train1P1,pngimages/11_compass.png,0.5,-0.5,,,,,,,,,,,,,,,,,,,,,,,,,,,,,,,,,,,,,,,,,,,,,,,,,,,,,,,,,,,,,,,,
,,,,,,,,Gwen Wojtkun,1098,2021-02-12_15h20.00.756,experiment,2020.1.3,MacIntel,60,,,,,,,,,,,,,,,,,,,,,0,12,12,12,1,aoiConditions/train1P1Block13.xlsx,aoiConditions/train1P1Block13Test.xlsx,,,,,,,,,,,,,,,,,,,,,,,,,,,,,,,,,,,,,,,,,,,,,,,,,,,,,,,,,
,0,0,0,0,1,trainingaudio/14_pokoto1.wav,pngimages/14_coffee.png,Gwen Wojtkun,1098,2021-02-12_15h20.00.756,experiment,2020.1.3,MacIntel,60,,,,,,,,,,,,,,,,,,,,,,,,,,,,,,,,,,,,,,,,,,,,,,,,,,,,,,,,,,,,,,,,,,,,,,,,,,,,,,,,,,,,
,,,,,,,,Gwen Wojtkun,1098,2021-02-12_15h20.00.756,experiment,2020.1.3,MacIntel,60,,,0,0,0,0,1,,,,,,,,,,,,,,,,,,,,,,,,,,,,,,,,,,,,,,,,,,,,,,,,,,,,,,,,,,,,,,,,,,,,,,,,,,,,,
,,,,,,,,Gwen Wojtkun,1098,2021-02-12_15h20.00.756,experiment,2020.1.3,MacIntel,60,,,,,,,,j,0.661015,0,0,0,0,1,trainingaudio/14_pokoto1.wav,pngimages/14_coffee.png,train1P1,pngimages/94_house.png,0.5,-0.5,,,,,,,,,,,,,,,,,,,,,,,,,,,,,,,,,,,,,,,,,,,,,,,,,,,,,,,,,,,,,,,,
,,,,,,,,Gwen Wojtkun,1098,2021-02-12_15h20.00.756,experiment,2020.1.3,MacIntel,60,,,,,,,,,,,,,,,,,,,,,,,,,,,,0,0,0,0,1,aoiConditions/train1P1LoopCondition.xlsx,two,,,,,,,,,,,,,,,,,,,,,,,,,,,,,,,,,,,,,,,,,,,,,,,,,,
,0,0,0,0,1,trainingaudio/09_tipata2.wav,pngimages/09_plane.png,Gwen Wojtkun,1098,2021-02-12_15h20.00.756,experiment,2020.1.3,MacIntel,60,,,,,,,,,,,,,,,,,,,,,,,,,,,,,,,,,,,,,,,,,,,,,,,,,,,,,,,,,,,,,,,,,,,,,,,,,,,,,,,,,,,,
,0,1,1,1,1,trainingaudio/15_kopota3.wav,pngimages/15_barrel.png,Gwen Wojtkun,1098,2021-02-12_15h20.00.756,experiment,2020.1.3,MacIntel,60,,,,,,,,,,,,,,,,,,,,,,,,,,,,,,,,,,,,,,,,,,,,,,,,,,,,,,,,,,,,,,,,,,,,,,,,,,,,,,,,,,,,
,0,2,2,2,1,trainingaudio/14_pokoto1.wav,pngimages/14_coffee.png,Gwen Wojtkun,1098,2021-02-12_15h20.00.756,experiment,2020.1.3,MacIntel,60,,,,,,,,,,,,,,,,,,,,,,,,,,,,,,,,,,,,,,,,,,,,,,,,,,,,,,,,,,,,,,,,,,,,,,,,,,,,,,,,,,,,
,,,,,,,,Gwen Wojtkun,1098,2021-02-12_15h20.00.756,experiment,2020.1.3,MacIntel,60,space,3.9966,0,0,0,0,1,,,,,,,,,,,,,,,,,,,,,,,,,,,,,,,,,,,,,,,,,,,,,,,,,,,,,,,,,,,,,,,,,,,,,,,,,,,,,
,,,,,,,,Gwen Wojtkun,1098,2021-02-12_15h20.00.756,experiment,2020.1.3,MacIntel,60,,,,,,,,j,0.61711,0,0,0,0,1,trainingaudio/09_tipata2.wav,pngimages/09_plane.png,train1P2,pngimages/19_burger.png,0.5,-0.5,,,,,,,,,,,,,,,,,,,,,,,,,,,,,,,,,,,,,,,,,,,,,,,,,,,,,,,,,,,,,,,,
,,,,,,,,Gwen Wojtkun,1098,2021-02-12_15h20.00.756,experiment,2020.1.3,MacIntel,60,,,,,,,,j,1.587555,0,1,1,1,1,trainingaudio/15_kopota3.wav,pngimages/15_barrel.png,train1P2,pngimages/14_coffee.png,-0.5,0.5,,,,,,,,,,,,,,,,,,,,,,,,,,,,,,,,,,,,,,,,,,,,,,,,,,,,,,,,,,,,,,,,
,,,,,,,,Gwen Wojtkun,1098,2021-02-12_15h20.00.756,experiment,2020.1.3,MacIntel,60,,,,,,,,,,,,,,,,,,,,,0,0,0,0,1,aoiConditions/train1P2Block1.xlsx,aoiConditions/train1P2Block1Test.xlsx,,,,,,,,,,,,,,,,,,,,,,,,,,,,,,,,,,,,,,,,,,,,,,,,,,,,,,,,,
,0,0,0,0,1,trainingaudio/16_kokapi2.wav,pngimages/16_icecream.png,Gwen Wojtkun,1098,2021-02-12_15h20.00.756,experiment,2020.1.3,MacIntel,60,,,,,,,,,,,,,,,,,,,,,,,,,,,,,,,,,,,,,,,,,,,,,,,,,,,,,,,,,,,,,,,,,,,,,,,,,,,,,,,,,,,,
,0,1,1,1,1,trainingaudio/26_kapako1.wav,pngimages/26_pineapple.png,Gwen Wojtkun,1098,2021-02-12_15h20.00.756,experiment,2020.1.3,MacIntel,60,,,,,,,,,,,,,,,,,,,,,,,,,,,,,,,,,,,,,,,,,,,,,,,,,,,,,,,,,,,,,,,,,,,,,,,,,,,,,,,,,,,,
,0,2,2,2,1,trainingaudio/17_kotako2.wav,pngimages/17_cracker.png,Gwen Wojtkun,1098,2021-02-12_15h20.00.756,experiment,2020.1.3,MacIntel,60,,,,,,,,,,,,,,,,,,,,,,,,,,,,,,,,,,,,,,,,,,,,,,,,,,,,,,,,,,,,,,,,,,,,,,,,,,,,,,,,,,,,
,,,,,,,,Gwen Wojtkun,1098,2021-02-12_15h20.00.756,experiment,2020.1.3,MacIntel,60,,,0,0,0,0,1,,,,,,,,,,,,,,,,,,,,,,,,,,,,,,,,,,,,,,,,,,,,,,,,,,,,,,,,,,,,,,,,,,,,,,,,,,,,,
,,,,,,,,Gwen Wojtkun,1098,2021-02-12_15h20.00.756,experiment,2020.1.3,MacIntel,60,,,,,,,,f,0.743645,0,0,0,0,1,trainingaudio/11_tokiko1.wav,pngimages/11_compass.png,train1P2,pngimages/26_pineapple.png,-0.5,0.5,,,,,,,,,,,,,,,,,,,,,,,,,,,,,,,,,,,,,,,,,,,,,,,,,,,,,,,,,,,,,,,,
,,,,,,,,Gwen Wojtkun,1098,2021-02-12_15h20.00.756,experiment,2020.1.3,MacIntel,60,,,,,,,,f,0.718045,0,1,1,1,1,trainingaudio/17_kotako2.wav,pngimages/17_cracker.png,train1P2,pngimages/16_icecream.png,-0.5,0.5,,,,,,,,,,,,,,,,,,,,,,,,,,,,,,,,,,,,,,,,,,,,,,,,,,,,,,,,,,,,,,,,
,,,,,,,,Gwen Wojtkun,1098,2021-02-12_15h20.00.756,experiment,2020.1.3,MacIntel,60,,,,,,,,,,,,,,,,,,,,,0,1,1,1,1,aoiConditions/train1P2Block2.xlsx,aoiConditions/train1P2Block2Test.xlsx,,,,,,,,,,,,,,,,,,,,,,,,,,,,,,,,,,,,,,,,,,,,,,,,,,,,,,,,,
,0,0,0,0,1,trainingaudio/08_tipako2.wav,pngimages/08_bell.png,Gwen Wojtkun,1098,2021-02-12_15h20.00.756,experiment,2020.1.3,MacIntel,60,,,,,,,,,,,,,,,,,,,,,,,,,,,,,,,,,,,,,,,,,,,,,,,,,,,,,,,,,,,,,,,,,,,,,,,,,,,,,,,,,,,,
,0,1,1,1,1,trainingaudio/07_pitapi2.wav,pngimages/07_suitcase.png,Gwen Wojtkun,1098,2021-02-12_15h20.00.756,experiment,2020.1.3,MacIntel,60,,,,,,,,,,,,,,,,,,,,,,,,,,,,,,,,,,,,,,,,,,,,,,,,,,,,,,,,,,,,,,,,,,,,,,,,,,,,,,,,,,,,
,0,2,2,2,1,trainingaudio/03_kikita3.wav,pngimages/03_box.png,Gwen Wojtkun,1098,2021-02-12_15h20.00.756,experiment,2020.1.3,MacIntel,60,,,,,,,,,,,,,,,,,,,,,,,,,,,,,,,,,,,,,,,,,,,,,,,,,,,,,,,,,,,,,,,,,,,,,,,,,,,,,,,,,,,,
,,,,,,,,Gwen Wojtkun,1098,2021-02-12_15h20.00.756,experiment,2020.1.3,MacIntel,60,,,0,0,0,0,1,,,,,,,,,,,,,,,,,,,,,,,,,,,,,,,,,,,,,,,,,,,,,,,,,,,,,,,,,,,,,,,,,,,,,,,,,,,,,
,,,,,,,,Gwen Wojtkun,1098,2021-02-12_15h20.00.756,experiment,2020.1.3,MacIntel,60,,,,,,,,j,1.18673,0,0,0,0,1,trainingaudio/07_pitapi2.wav,pngimages/07_suitcase.png,train1P2,pngimages/08_bell.png,0.5,-0.5,,,,,,,,,,,,,,,,,,,,,,,,,,,,,,,,,,,,,,,,,,,,,,,,,,,,,,,,,,,,,,,,
,,,,,,,,Gwen Wojtkun,1098,2021-02-12_15h20.00.756,experiment,2020.1.3,MacIntel,60,,,,,,,,f,0.83011,0,1,1,1,1,trainingaudio/03_kikita3.wav,pngimages/03_box.png,train1P2,pngimages/01_gift.png,-0.5,0.5,,,,,,,,,,,,,,,,,,,,,,,,,,,,,,,,,,,,,,,,,,,,,,,,,,,,,,,,,,,,,,,,
,,,,,,,,Gwen Wojtkun,1098,2021-02-12_15h20.00.756,experiment,2020.1.3,MacIntel,60,,,,,,,,,,,,,,,,,,,,,0,2,2,2,1,aoiConditions/train1P2Block3.xlsx,aoiConditions/train1P2Block3Test.xlsx,,,,,,,,,,,,,,,,,,,,,,,,,,,,,,,,,,,,,,,,,,,,,,,,,,,,,,,,,
,0,0,0,0,1,trainingaudio/12_pokika3.wav,pngimages/12_pie.png,Gwen Wojtkun,1098,2021-02-12_15h20.00.756,experiment,2020.1.3,MacIntel,60,,,,,,,,,,,,,,,,,,,,,,,,,,,,,,,,,,,,,,,,,,,,,,,,,,,,,,,,,,,,,,,,,,,,,,,,,,,,,,,,,,,,
,0,1,1,1,1,trainingaudio/22_kakoki1.wav,pngimages/22_egg.png,Gwen Wojtkun,1098,2021-02-12_15h20.00.756,experiment,2020.1.3,MacIntel,60,,,,,,,,,,,,,,,,,,,,,,,,,,,,,,,,,,,,,,,,,,,,,,,,,,,,,,,,,,,,,,,,,,,,,,,,,,,,,,,,,,,,
,0,2,2,2,1,trainingaudio/04_kitoti2.wav,pngimages/04_ladder.png,Gwen Wojtkun,1098,2021-02-12_15h20.00.756,experiment,2020.1.3,MacIntel,60,,,,,,,,,,,,,,,,,,,,,,,,,,,,,,,,,,,,,,,,,,,,,,,,,,,,,,,,,,,,,,,,,,,,,,,,,,,,,,,,,,,,
,,,,,,,,Gwen Wojtkun,1098,2021-02-12_15h20.00.756,experiment,2020.1.3,MacIntel,60,,,0,0,0,0,1,,,,,,,,,,,,,,,,,,,,,,,,,,,,,,,,,,,,,,,,,,,,,,,,,,,,,,,,,,,,,,,,,,,,,,,,,,,,,
,,,,,,,,Gwen Wojtkun,1098,2021-02-12_15h20.00.756,experiment,2020.1.3,MacIntel,60,,,,,,,,j,1.20215,0,0,0,0,1,trainingaudio/04_kitoti2.wav,pngimages/04_ladder.png,train1P2,pngimages/12_pie.png,0.5,-0.5,,,,,,,,,,,,,,,,,,,,,,,,,,,,,,,,,,,,,,,,,,,,,,,,,,,,,,,,,,,,,,,,
,,,,,,,,Gwen Wojtkun,1098,2021-02-12_15h20.00.756,experiment,2020.1.3,MacIntel,60,,,,,,,,f,0.769265,0,1,1,1,1,trainingaudio/22_kakoki1.wav,pngimages/22_egg.png,train1P2,pngimages/02_pallet.png,-0.5,0.5,,,,,,,,,,,,,,,,,,,,,,,,,,,,,,,,,,,,,,,,,,,,,,,,,,,,,,,,,,,,,,,,
,,,,,,,,Gwen Wojtkun,1098,2021-02-12_15h20.00.756,experiment,2020.1.3,MacIntel,60,,,,,,,,,,,,,,,,,,,,,0,3,3,3,1,aoiConditions/train1P2Block4.xlsx,aoiConditions/train1P2Block4Test.xlsx,,,,,,,,,,,,,,,,,,,,,,,,,,,,,,,,,,,,,,,,,,,,,,,,,,,,,,,,,
,0,0,0,0,1,trainingaudio/23_patoko1.wav,pngimages/23_lemon.png,Gwen Wojtkun,1098,2021-02-12_15h20.00.756,experiment,2020.1.3,MacIntel,60,,,,,,,,,,,,,,,,,,,,,,,,,,,,,,,,,,,,,,,,,,,,,,,,,,,,,,,,,,,,,,,,,,,,,,,,,,,,,,,,,,,,
,0,1,1,1,1,trainingaudio/10_tokiti1.wav,pngimages/10_backpack.png,Gwen Wojtkun,1098,2021-02-12_15h20.00.756,experiment,2020.1.3,MacIntel,60,,,,,,,,,,,,,,,,,,,,,,,,,,,,,,,,,,,,,,,,,,,,,,,,,,,,,,,,,,,,,,,,,,,,,,,,,,,,,,,,,,,,
,0,2,2,2,1,trainingaudio/20_tatito1.wav,pngimages/20_pizza.png,Gwen Wojtkun,1098,2021-02-12_15h20.00.756,experiment,2020.1.3,MacIntel,60,,,,,,,,,,,,,,,,,,,,,,,,,,,,,,,,,,,,,,,,,,,,,,,,,,,,,,,,,,,,,,,,,,,,,,,,,,,,,,,,,,,,
,,,,,,,,Gwen Wojtkun,1098,2021-02-12_15h20.00.756,experiment,2020.1.3,MacIntel,60,,,0,0,0,0,1,,,,,,,,,,,,,,,,,,,,,,,,,,,,,,,,,,,,,,,,,,,,,,,,,,,,,,,,,,,,,,,,,,,,,,,,,,,,,
,,,,,,,,Gwen Wojtkun,1098,2021-02-12_15h20.00.756,experiment,2020.1.3,MacIntel,60,,,,,,,,f,0.84089,0,0,0,0,1,trainingaudio/10_tokiti1.wav,pngimages/10_backpack.png,train1P2,pngimages/23_lemon.png,0.5,-0.5,,,,,,,,,,,,,,,,,,,,,,,,,,,,,,,,,,,,,,,,,,,,,,,,,,,,,,,,,,,,,,,,
,,,,,,,,Gwen Wojtkun,1098,2021-02-12_15h20.00.756,experiment,2020.1.3,MacIntel,60,,,,,,,,f,0.5687,0,1,1,1,1,trainingaudio/25_tapapi1.wav,pngimages/25_apple.png,train1P2,pngimages/20_pizza.png,-0.5,0.5,,,,,,,,,,,,,,,,,,,,,,,,,,,,,,,,,,,,,,,,,,,,,,,,,,,,,,,,,,,,,,,,
,,,,,,,,Gwen Wojtkun,1098,2021-02-12_15h20.00.756,experiment,2020.1.3,MacIntel,60,,,,,,,,,,,,,,,,,,,,,0,4,4,4,1,aoiConditions/train1P2Block5.xlsx,aoiConditions/train1P2Block5Test.xlsx,,,,,,,,,,,,,,,,,,,,,,,,,,,,,,,,,,,,,,,,,,,,,,,,,,,,,,,,,
,0,0,0,0,1,trainingaudio/18_popata2.wav,pngimages/18_donut.png,Gwen Wojtkun,1098,2021-02-12_15h20.00.756,experiment,2020.1.3,MacIntel,60,,,,,,,,,,,,,,,,,,,,,,,,,,,,,,,,,,,,,,,,,,,,,,,,,,,,,,,,,,,,,,,,,,,,,,,,,,,,,,,,,,,,
,0,1,1,1,1,trainingaudio/06_titoka3.wav,pngimages/06_tent.png,Gwen Wojtkun,1098,2021-02-12_15h20.00.756,experiment,2020.1.3,MacIntel,60,,,,,,,,,,,,,,,,,,,,,,,,,,,,,,,,,,,,,,,,,,,,,,,,,,,,,,,,,,,,,,,,,,,,,,,,,,,,,,,,,,,,
,0,2,2,2,1,trainingaudio/21_papika1.wav,pngimages/21_cheese.png,Gwen Wojtkun,1098,2021-02-12_15h20.00.756,experiment,2020.1.3,MacIntel,60,,,,,,,,,,,,,,,,,,,,,,,,,,,,,,,,,,,,,,,,,,,,,,,,,,,,,,,,,,,,,,,,,,,,,,,,,,,,,,,,,,,,
,,,,,,,,Gwen Wojtkun,1098,2021-02-12_15h20.00.756,experiment,2020.1.3,MacIntel,60,,,0,0,0,0,1,,,,,,,,,,,,,,,,,,,,,,,,,,,,,,,,,,,,,,,,,,,,,,,,,,,,,,,,,,,,,,,,,,,,,,,,,,,,,
,,,,,,,,Gwen Wojtkun,1098,2021-02-12_15h20.00.756,experiment,2020.1.3,MacIntel,60,,,,,,,,f,0.60495,0,0,0,0,1,trainingaudio/21_papika1.wav,pngimages/21_cheese.png,train1P2,pngimages/18_donut.png,-0.5,0.5,,,,,,,,,,,,,,,,,,,,,,,,,,,,,,,,,,,,,,,,,,,,,,,,,,,,,,,,,,,,,,,,
,,,,,,,,Gwen Wojtkun,1098,2021-02-12_15h20.00.756,experiment,2020.1.3,MacIntel,60,,,,,,,,f,0.439005,0,1,1,1,1,trainingaudio/06_titoka3.wav,pngimages/06_tent.png,train1P2,pngimages/27_kiwi.png,-0.5,0.5,,,,,,,,,,,,,,,,,,,,,,,,,,,,,,,,,,,,,,,,,,,,,,,,,,,,,,,,,,,,,,,,
,,,,,,,,Gwen Wojtkun,1098,2021-02-12_15h20.00.756,experiment,2020.1.3,MacIntel,60,,,,,,,,,,,,,,,,,,,,,0,5,5,5,1,aoiConditions/train1P2Block6.xlsx,aoiConditions/train1P2Block6Test.xlsx,,,,,,,,,,,,,,,,,,,,,,,,,,,,,,,,,,,,,,,,,,,,,,,,,,,,,,,,,
,0,0,0,0,1,trainingaudio/24_takopa1.wav,pngimages/24_banana.png,Gwen Wojtkun,1098,2021-02-12_15h20.00.756,experiment,2020.1.3,MacIntel,60,,,,,,,,,,,,,,,,,,,,,,,,,,,,,,,,,,,,,,,,,,,,,,,,,,,,,,,,,,,,,,,,,,,,,,,,,,,,,,,,,,,,
,0,1,1,1,1,trainingaudio/13_kopopi1.wav,pngimages/13_toast.png,Gwen Wojtkun,1098,2021-02-12_15h20.00.756,experiment,2020.1.3,MacIntel,60,,,,,,,,,,,,,,,,,,,,,,,,,,,,,,,,,,,,,,,,,,,,,,,,,,,,,,,,,,,,,,,,,,,,,,,,,,,,,,,,,,,,
,0,2,2,2,1,trainingaudio/05_titopo2.wav,pngimages/05_megaphone.png,Gwen Wojtkun,1098,2021-02-12_15h20.00.756,experiment,2020.1.3,MacIntel,60,,,,,,,,,,,,,,,,,,,,,,,,,,,,,,,,,,,,,,,,,,,,,,,,,,,,,,,,,,,,,,,,,,,,,,,,,,,,,,,,,,,,
,,,,,,,,Gwen Wojtkun,1098,2021-02-12_15h20.00.756,experiment,2020.1.3,MacIntel,60,,,0,0,0,0,1,,,,,,,,,,,,,,,,,,,,,,,,,,,,,,,,,,,,,,,,,,,,,,,,,,,,,,,,,,,,,,,,,,,,,,,,,,,,,
,,,,,,,,Gwen Wojtkun,1098,2021-02-12_15h20.00.756,experiment,2020.1.3,MacIntel,60,,,,,,,,j,0.62694,0,0,0,0,1,trainingaudio/94_kipipi1.wav,pngimages/94_house.png,train1P2,pngimages/24_banana.png,0.5,-0.5,,,,,,,,,,,,,,,,,,,,,,,,,,,,,,,,,,,,,,,,,,,,,,,,,,,,,,,,,,,,,,,,
,,,,,,,,Gwen Wojtkun,1098,2021-02-12_15h20.00.756,experiment,2020.1.3,MacIntel,60,,,,,,,,f,0.970465,0,1,1,1,1,trainingaudio/05_titopo2.wav,pngimages/05_megaphone.png,train1P2,pngimages/13_toast.png,-0.5,0.5,,,,,,,,,,,,,,,,,,,,,,,,,,,,,,,,,,,,,,,,,,,,,,,,,,,,,,,,,,,,,,,,
,,,,,,,pngimages/04_ladder.png,Gwen Wojtkun,1098,2021-02-12_15h20.00.756,experiment,2020.1.3,MacIntel,60,,,,,,,,,,,,,,,,,test1,,,,,,,,,,,,,,,,,,space,18.959805,space,9.778845,f,1.2663,0,0,0,0,1,trainingaudio/04_kitoti1.wav,trainingaudio/04_kitoti2.wav,2,trainingaudio/04_kitoti2.wav,,,,,,,,,,,,,,,,,,,,,,,,,,,,,,,,,,,
,,,,,,,pngimages/12_pie.png,Gwen Wojtkun,1098,2021-02-12_15h20.00.756,experiment,2020.1.3,MacIntel,60,,,,,,,,,,,,,,,,,test1,,,,,,,,,,,,,,,,,,,,,,f,0.8679,0,1,1,1,1,trainingaudio/12_pokika1.wav,trainingaudio/12_pokika3.wav,2,trainingaudio/12_pokika3.wav,,,,,,,,,,,,,,,,,,,,,,,,,,,,,,,,,,,
,,,,,,,pngimages/02_pallet.png,Gwen Wojtkun,1098,2021-02-12_15h20.00.756,experiment,2020.1.3,MacIntel,60,,,,,,,,,,,,,,,,,test1,,,,,,,,,,,,,,,,,,,,,,f,0.651125,0,2,2,2,1,trainingaudio/02_pitito3.wav,trainingaudio/02_pitito1.wav,1,trainingaudio/02_pitito3.wav,,,,,,,,,,,,,,,,,,,,,,,,,,,,,,,,,,,
,,,,,,,pngimages/20_pizza.png,Gwen Wojtkun,1098,2021-02-12_15h20.00.756,experiment,2020.1.3,MacIntel,60,,,,,,,,,,,,,,,,,test1,,,,,,,,,,,,,,,,,,,,,,j,0.794295,0,3,3,3,1,trainingaudio/20_tatito2.wav,trainingaudio/20_tatito1.wav,2,trainingaudio/20_tatito1.wav,,,,,,,,,,,,,,,,,,,,,,,,,,,,,,,,,,,
,,,,,,,pngimages/24_banana.png,Gwen Wojtkun,1098,2021-02-12_15h20.00.756,experiment,2020.1.3,MacIntel,60,,,,,,,,,,,,,,,,,test1,,,,,,,,,,,,,,,,,,,,,,j,0.548605,0,4,4,4,1,trainingaudio/24_takopa2.wav,trainingaudio/24_takopa1.wav,2,trainingaudio/24_takopa1.wav,,,,,,,,,,,,,,,,,,,,,,,,,,,,,,,,,,,
,,,,,,,pngimages/09_plane.png,Gwen Wojtkun,1098,2021-02-12_15h20.00.756,experiment,2020.1.3,MacIntel,60,,,,,,,,,,,,,,,,,test1,,,,,,,,,,,,,,,,,,,,,,f,0.68045,0,5,5,5,1,trainingaudio/09_tipata1.wav,trainingaudio/09_tipata2.wav,2,trainingaudio/09_tipata2.wav,,,,,,,,,,,,,,,,,,,,,,,,,,,,,,,,,,,
,,,,,,,pngimages/14_coffee.png,Gwen Wojtkun,1098,2021-02-12_15h20.00.756,experiment,2020.1.3,MacIntel,60,,,,,,,,,,,,,,,,,test1,,,,,,,,,,,,,,,,,,,,,,f,0.32865,0,6,6,6,1,trainingaudio/14_pokoto3.wav,trainingaudio/14_pokoto1.wav,2,trainingaudio/14_pokoto1.wav,,,,,,,,,,,,,,,,,,,,,,,,,,,,,,,,,,,
,,,,,,,pngimages/15_barrel.png,Gwen Wojtkun,1098,2021-02-12_15h20.00.756,experiment,2020.1.3,MacIntel,60,,,,,,,,,,,,,,,,,test1,,,,,,,,,,,,,,,,,,,,,,f,0.5194,0,7,7,7,1,trainingaudio/15_kopota3.wav,trainingaudio/15_kopota2.wav,1,trainingaudio/15_kopota3.wav,,,,,,,,,,,,,,,,,,,,,,,,,,,,,,,,,,,
,,,,,,,pngimages/27_kiwi.png,Gwen Wojtkun,1098,2021-02-12_15h20.00.756,experiment,2020.1.3,MacIntel,60,,,,,,,,,,,,,,,,,test1,,,,,,,,,,,,,,,,,,,,,,f,0.3664,0,8,8,8,1,trainingaudio/27_pakapa3.wav,trainingaudio/27_pakapa1.wav,2,trainingaudio/27_pakapa1.wav,,,,,,,,,,,,,,,,,,,,,,,,,,,,,,,,,,,
,,,,,,,pngimages/22_egg.png,Gwen Wojtkun,1098,2021-02-12_15h20.00.756,experiment,2020.1.3,MacIntel,60,,,,,,,,,,,,,,,,,test1,,,,,,,,,,,,,,,,,,,,,,f,0.665715,0,9,9,9,1,trainingaudio/22_kakoki1.wav,trainingaudio/22_kakoki3.wav,1,trainingaudio/22_kakoki1.wav,,,,,,,,,,,,,,,,,,,,,,,,,,,,,,,,,,,
,,,,,,,pngimages/18_donut.png,Gwen Wojtkun,1098,2021-02-12_15h20.00.756,experiment,2020.1.3,MacIntel,60,,,,,,,,,,,,,,,,,test1,,,,,,,,,,,,,,,,,,,,,,f,0.56746,0,10,10,10,1,trainingaudio/18_popata2.wav,trainingaudio/18_popata3.wav,1,trainingaudio/18_popata2.wav,,,,,,,,,,,,,,,,,,,,,,,,,,,,,,,,,,,
,,,,,,,pngimages/13_toast.png,Gwen Wojtkun,1098,2021-02-12_15h20.00.756,experiment,2020.1.3,MacIntel,60,,,,,,,,,,,,,,,,,test1,,,,,,,,,,,,,,,,,,,,,,f,0.420195,0,11,11,11,1,trainingaudio/13_kopopi1.wav,trainingaudio/13_kopopi2.wav,1,trainingaudio/13_kopopi1.wav,,,,,,,,,,,,,,,,,,,,,,,,,,,,,,,,,,,
,,,,,,,pngimages/06_tent.png,Gwen Wojtkun,1098,2021-02-12_15h20.00.756,experiment,2020.1.3,MacIntel,60,,,,,,,,,,,,,,,,,test1,,,,,,,,,,,,,,,,,,,,,,f,0.38777,0,12,12,12,1,trainingaudio/06_titoka3.wav,trainingaudio/06_titoka1.wav,1,trainingaudio/06_titoka3.wav,,,,,,,,,,,,,,,,,,,,,,,,,,,,,,,,,,,
,,,,,,,pngimages/11_compass.png,Gwen Wojtkun,1098,2021-02-12_15h20.00.756,experiment,2020.1.3,MacIntel,60,,,,,,,,,,,,,,,,,test1,,,,,,,,,,,,,,,,,,,,,,j,0.51561,0,13,13,13,1,trainingaudio/11_tokiko3.wav,trainingaudio/11_tokiko1.wav,2,trainingaudio/11_tokiko1.wav,,,,,,,,,,,,,,,,,,,,,,,,,,,,,,,,,,,
,,,,,,,pngimages/05_megaphone.png,Gwen Wojtkun,1098,2021-02-12_15h20.00.756,experiment,2020.1.3,MacIntel,60,,,,,,,,,,,,,,,,,test1,,,,,,,,,,,,,,,,,,,,,,f,0.4854,0,14,14,14,1,trainingaudio/05_titopo2.wav,trainingaudio/05_titopo3.wav,1,trainingaudio/05_titopo2.wav,,,,,,,,,,,,,,,,,,,,,,,,,,,,,,,,,,,
,,,,,,,pngimages/94_house.png,Gwen Wojtkun,1098,2021-02-12_15h20.00.756,experiment,2020.1.3,MacIntel,60,,,,,,,,,,,,,,,,,test1,,,,,,,,,,,,,,,,,,,,,,f,0.395165,0,15,15,15,1,trainingaudio/94_kipipi1.wav,trainingaudio/94_kipipi2.wav,1,trainingaudio/94_kipipi1.wav,,,,,,,,,,,,,,,,,,,,,,,,,,,,,,,,,,,
,,,,,,,pngimages/07_suitcase.png,Gwen Wojtkun,1098,2021-02-12_15h20.00.756,experiment,2020.1.3,MacIntel,60,,,,,,,,,,,,,,,,,test1,,,,,,,,,,,,,,,,,,,,,,f,0.696725,0,16,16,16,1,trainingaudio/07_pitapi2.wav,trainingaudio/07_pitapi3.wav,1,trainingaudio/07_pitapi2.wav,,,,,,,,,,,,,,,,,,,,,,,,,,,,,,,,,,,
,,,,,,,pngimages/25_apple.png,Gwen Wojtkun,1098,2021-02-12_15h20.00.756,experiment,2020.1.3,MacIntel,60,,,,,,,,,,,,,,,,,test1,,,,,,,,,,,,,,,,,,,,,,j,0.32081,0,17,17,17,1,trainingaudio/25_tapapi2.wav,trainingaudio/25_tapapi1.wav,2,trainingaudio/25_tapapi1.wav,,,,,,,,,,,,,,,,,,,,,,,,,,,,,,,,,,,
,,,,,,,pngimages/03_box.png,Gwen Wojtkun,1098,2021-02-12_15h20.00.756,experiment,2020.1.3,MacIntel,60,,,,,,,,,,,,,,,,,test1,,,,,,,,,,,,,,,,,,,,,,f,0.48607,0,18,18,18,1,trainingaudio/03_kikita2.wav,trainingaudio/03_kikita3.wav,2,trainingaudio/03_kikita3.wav,,,,,,,,,,,,,,,,,,,,,,,,,,,,,,,,,,,
,,,,,,,pngimages/01_gift.png,Gwen Wojtkun,1098,2021-02-12_15h20.00.756,experiment,2020.1.3,MacIntel,60,,,,,,,,,,,,,,,,,test1,,,,,,,,,,,,,,,,,,,,,,f,0.485275,0,19,19,19,1,trainingaudio/01_kitipi2.wav,trainingaudio/01_kitipi1.wav,2,trainingaudio/01_kitipi1.wav,,,,,,,,,,,,,,,,,,,,,,,,,,,,,,,,,,,
,,,,,,,pngimages/26_pineapple.png,Gwen Wojtkun,1098,2021-02-12_15h20.00.756,experiment,2020.1.3,MacIntel,60,,,,,,,,,,,,,,,,,test1,,,,,,,,,,,,,,,,,,,,,,f,0.301725,0,20,20,20,1,trainingaudio/26_kapako2.wav,trainingaudio/26_kapako1.wav,2,trainingaudio/26_kapako1.wav,,,,,,,,,,,,,,,,,,,,,,,,,,,,,,,,,,,
,,,,,,,pngimages/10_backpack.png,Gwen Wojtkun,1098,2021-02-12_15h20.00.756,experiment,2020.1.3,MacIntel,60,,,,,,,,,,,,,,,,,test1,,,,,,,,,,,,,,,,,,,,,,j,0.485375,0,21,21,21,1,trainingaudio/10_tokiti3.wav,trainingaudio/10_tokiti1.wav,2,trainingaudio/10_tokiti1.wav,,,,,,,,,,,,,,,,,,,,,,,,,,,,,,,,,,,
,,,,,,,pngimages/21_cheese.png,Gwen Wojtkun,1098,2021-02-12_15h20.00.756,experiment,2020.1.3,MacIntel,60,,,,,,,,,,,,,,,,,test1,,,,,,,,,,,,,,,,,,,,,,f,0.328635,0,22,22,22,1,trainingaudio/21_papika1.wav,trainingaudio/21_papika3.wav,1,trainingaudio/21_papika1.wav,,,,,,,,,,,,,,,,,,,,,,,,,,,,,,,,,,,
,,,,,,,pngimages/19_burger.png,Gwen Wojtkun,1098,2021-02-12_15h20.00.756,experiment,2020.1.3,MacIntel,60,,,,,,,,,,,,,,,,,test1,,,,,,,,,,,,,,,,,,,,,,f,0.445665,0,23,23,23,1,trainingaudio/19_papipi1.wav,trainingaudio/19_papipi3.wav,1,trainingaudio/19_papipi1.wav,,,,,,,,,,,,,,,,,,,,,,,,,,,,,,,,,,,
,,,,,,,pngimages/17_cracker.png,Gwen Wojtkun,1098,2021-02-12_15h20.00.756,experiment,2020.1.3,MacIntel,60,,,,,,,,,,,,,,,,,test1,,,,,,,,,,,,,,,,,,,,,,f,0.355115,0,24,24,24,1,trainingaudio/17_kotako1.wav,trainingaudio/17_kotako2.wav,2,trainingaudio/17_kotako2.wav,,,,,,,,,,,,,,,,,,,,,,,,,,,,,,,,,,,
,,,,,,,pngimages/16_icecream.png,Gwen Wojtkun,1098,2021-02-12_15h20.00.756,experiment,2020.1.3,MacIntel,60,,,,,,,,,,,,,,,,,test1,,,,,,,,,,,,,,,,,,,,,,j,0.379385,0,25,25,25,1,trainingaudio/16_kokapi1.wav,trainingaudio/16_kokapi2.wav,2,trainingaudio/16_kokapi2.wav,,,,,,,,,,,,,,,,,,,,,,,,,,,,,,,,,,,
,,,,,,,pngimages/23_lemon.png,Gwen Wojtkun,1098,2021-02-12_15h20.00.756,experiment,2020.1.3,MacIntel,60,,,,,,,,,,,,,,,,,test1,,,,,,,,,,,,,,,,,,,,,,f,0.29839,0,26,26,26,1,trainingaudio/23_patoko2.wav,trainingaudio/23_patoko1.wav,2,trainingaudio/23_patoko1.wav,,,,,,,,,,,,,,,,,,,,,,,,,,,,,,,,,,,
,,,,,,,pngimages/08_bell.png,Gwen Wojtkun,1098,2021-02-12_15h20.00.756,experiment,2020.1.3,MacIntel,60,,,,,,,,,,,,,,,,,test1,,,,,,,,,,,,,,,,,,,,,,f,0.436255,0,27,27,27,1,trainingaudio/08_tipako2.wav,trainingaudio/08_tipako3.wav,1,trainingaudio/08_tipako2.wav,,,,,,,,,,,,,,,,,,,,,,,,,,,,,,,,,,,
,,,,,,,pngimages/27_kiwi.png,Gwen Wojtkun,1098,2021-02-12_15h20.00.756,experiment,2020.1.3,MacIntel,60,,,,,,,,,,,,,,,,,test1,,,,,,,,,,,,,,,,,,,,,,j,0.3294,0,28,28,28,1,trainingaudio/27_pakapa2.wav,trainingaudio/27_pakapa1.wav,2,trainingaudio/27_pakapa1.wav,,,,,,,,,,,,,,,,,,,,,,,,,,,,,,,,,,,
,,,,,,,pngimages/20_pizza.png,Gwen Wojtkun,1098,2021-02-12_15h20.00.756,experiment,2020.1.3,MacIntel,60,,,,,,,,,,,,,,,,,test1,,,,,,,,,,,,,,,,,,,,,,j,0.304085,0,29,29,29,1,trainingaudio/20_tatito3.wav,trainingaudio/20_tatito1.wav,2,trainingaudio/20_tatito1.wav,,,,,,,,,,,,,,,,,,,,,,,,,,,,,,,,,,,
,,,,,,,pngimages/12_pie.png,Gwen Wojtkun,1098,2021-02-12_15h20.00.756,experiment,2020.1.3,MacIntel,60,,,,,,,,,,,,,,,,,test1,,,,,,,,,,,,,,,,,,,,,,f,0.263885,0,30,30,30,1,trainingaudio/12_pokika3.wav,trainingaudio/12_pokika1.wav,1,trainingaudio/12_pokika3.wav,,,,,,,,,,,,,,,,,,,,,,,,,,,,,,,,,,,
,,,,,,,pngimages/01_gift.png,Gwen Wojtkun,1098,2021-02-12_15h20.00.756,experiment,2020.1.3,MacIntel,60,,,,,,,,,,,,,,,,,test1,,,,,,,,,,,,,,,,,,,,,,j,0.35075,0,31,31,31,1,trainingaudio/01_kitipi3.wav,trainingaudio/01_kitipi1.wav,2,trainingaudio/01_kitipi1.wav,,,,,,,,,,,,,,,,,,,,,,,,,,,,,,,,,,,
,,,,,,,pngimages/09_plane.png,Gwen Wojtkun,1098,2021-02-12_15h20.00.756,experiment,2020.1.3,MacIntel,60,,,,,,,,,,,,,,,,,test1,,,,,,,,,,,,,,,,,,,,,,j,0.49562,0,32,32,32,1,trainingaudio/09_tipata3.wav,trainingaudio/09_tipata2.wav,2,trainingaudio/09_tipata2.wav,,,,,,,,,,,,,,,,,,,,,,,,,,,,,,,,,,,
,,,,,,,pngimages/25_apple.png,Gwen Wojtkun,1098,2021-02-12_15h20.00.756,experiment,2020.1.3,MacIntel,60,,,,,,,,,,,,,,,,,test1,,,,,,,,,,,,,,,,,,,,,,j,0.26134,0,33,33,33,1,trainingaudio/25_tapapi3.wav,trainingaudio/25_tapapi1.wav,2,trainingaudio/25_tapapi1.wav,,,,,,,,,,,,,,,,,,,,,,,,,,,,,,,,,,,
,,,,,,,pngimages/02_pallet.png,Gwen Wojtkun,1098,2021-02-12_15h20.00.756,experiment,2020.1.3,MacIntel,60,,,,,,,,,,,,,,,,,test1,,,,,,,,,,,,,,,,,,,,,,f,0.318965,0,34,34,34,1,trainingaudio/02_pitito3.wav,trainingaudio/02_pitito2.wav,1,trainingaudio/02_pitito3.wav,,,,,,,,,,,,,,,,,,,,,,,,,,,,,,,,,,,
,,,,,,,pngimages/08_bell.png,Gwen Wojtkun,1098,2021-02-12_15h20.00.756,experiment,2020.1.3,MacIntel,60,,,,,,,,,,,,,,,,,test1,,,,,,,,,,,,,,,,,,,,,,f,0.37087,0,35,35,35,1,trainingaudio/08_tipako2.wav,trainingaudio/08_tipako1.wav,1,trainingaudio/08_tipako2.wav,,,,,,,,,,,,,,,,,,,,,,,,,,,,,,,,,,,
,,,,,,,pngimages/15_barrel.png,Gwen Wojtkun,1098,2021-02-12_15h20.00.756,experiment,2020.1.3,MacIntel,60,,,,,,,,,,,,,,,,,test1,,,,,,,,,,,,,,,,,,,,,,j,0.349235,0,36,36,36,1,trainingaudio/15_kopota1.wav,trainingaudio/15_kopota3.wav,2,trainingaudio/15_kopota3.wav,,,,,,,,,,,,,,,,,,,,,,,,,,,,,,,,,,,
,,,,,,,pngimages/24_banana.png,Gwen Wojtkun,1098,2021-02-12_15h20.00.756,experiment,2020.1.3,MacIntel,60,,,,,,,,,,,,,,,,,test1,,,,,,,,,,,,,,,,,,,,,,f,0.28388,0,37,37,37,1,trainingaudio/24_takopa3.wav,trainingaudio/24_takopa1.wav,2,trainingaudio/24_takopa1.wav,,,,,,,,,,,,,,,,,,,,,,,,,,,,,,,,,,,
,,,,,,,pngimages/06_tent.png,Gwen Wojtkun,1098,2021-02-12_15h20.00.756,experiment,2020.1.3,MacIntel,60,,,,,,,,,,,,,,,,,test1,,,,,,,,,,,,,,,,,,,,,,f,0.579975,0,38,38,38,1,trainingaudio/06_titoka2.wav,trainingaudio/06_titoka3.wav,2,trainingaudio/06_titoka3.wav,,,,,,,,,,,,,,,,,,,,,,,,,,,,,,,,,,,
,,,,,,,pngimages/16_icecream.png,Gwen Wojtkun,1098,2021-02-12_15h20.00.756,experiment,2020.1.3,MacIntel,60,,,,,,,,,,,,,,,,,test1,,,,,,,,,,,,,,,,,,,,,,j,0.36431,0,39,39,39,1,trainingaudio/16_kokapi2.wav,trainingaudio/16_kokapi3.wav,1,trainingaudio/16_kokapi2.wav,,,,,,,,,,,,,,,,,,,,,,,,,,,,,,,,,,,
,,,,,,,pngimages/04_ladder.png,Gwen Wojtkun,1098,2021-02-12_15h20.00.756,experiment,2020.1.3,MacIntel,60,,,,,,,,,,,,,,,,,test1,,,,,,,,,,,,,,,,,,,,,,j,0.29548,0,40,40,40,1,trainingaudio/04_kitoti1.wav,trainingaudio/04_kitoti2.wav,2,trainingaudio/04_kitoti2.wav,,,,,,,,,,,,,,,,,,,,,,,,,,,,,,,,,,,
,,,,,,,pngimages/22_egg.png,Gwen Wojtkun,1098,2021-02-12_15h20.00.756,experiment,2020.1.3,MacIntel,60,,,,,,,,,,,,,,,,,test1,,,,,,,,,,,,,,,,,,,,,,j,0.300935,0,41,41,41,1,trainingaudio/22_kakoki2.wav,trainingaudio/22_kakoki1.wav,2,trainingaudio/22_kakoki1.wav,,,,,,,,,,,,,,,,,,,,,,,,,,,,,,,,,,,
,,,,,,,pngimages/17_cracker.png,Gwen Wojtkun,1098,2021-02-12_15h20.00.756,experiment,2020.1.3,MacIntel,60,,,,,,,,,,,,,,,,,test1,,,,,,,,,,,,,,,,,,,,,,j,0.3511,0,42,42,42,1,trainingaudio/17_kotako2.wav,trainingaudio/17_kotako3.wav,1,trainingaudio/17_kotako2.wav,,,,,,,,,,,,,,,,,,,,,,,,,,,,,,,,,,,
,,,,,,,pngimages/13_toast.png,Gwen Wojtkun,1098,2021-02-12_15h20.00.756,experiment,2020.1.3,MacIntel,60,,,,,,,,,,,,,,,,,test1,,,,,,,,,,,,,,,,,,,,,,f,0.31178,0,43,43,43,1,trainingaudio/13_kopopi3.wav,trainingaudio/13_kopopi1.wav,2,trainingaudio/13_kopopi1.wav,,,,,,,,,,,,,,,,,,,,,,,,,,,,,,,,,,,
,,,,,,,pngimages/94_house.png,Gwen Wojtkun,1098,2021-02-12_15h20.00.756,experiment,2020.1.3,MacIntel,60,,,,,,,,,,,,,,,,,test1,,,,,,,,,,,,,,,,,,,,,,j,0.31546,0,44,44,44,1,trainingaudio/94_kipipi2.wav,trainingaudio/94_kipipi1.wav,2,trainingaudio/94_kipipi1.wav,,,,,,,,,,,,,,,,,,,,,,,,,,,,,,,,,,,
,,,,,,,pngimages/07_suitcase.png,Gwen Wojtkun,1098,2021-02-12_15h20.00.756,experiment,2020.1.3,MacIntel,60,,,,,,,,,,,,,,,,,test1,,,,,,,,,,,,,,,,,,,,,,f,0.6345,0,45,45,45,1,trainingaudio/07_pitapi2.wav,trainingaudio/07_pitapi3.wav,1,trainingaudio/07_pitapi2.wav,,,,,,,,,,,,,,,,,,,,,,,,,,,,,,,,,,,
,,,,,,,pngimages/10_backpack.png,Gwen Wojtkun,1098,2021-02-12_15h20.00.756,experiment,2020.1.3,MacIntel,60,,,,,,,,,,,,,,,,,test1,,,,,,,,,,,,,,,,,,,,,,j,0.15057,0,46,46,46,1,trainingaudio/10_tokiti3.wav,trainingaudio/10_tokiti1.wav,2,trainingaudio/10_tokiti1.wav,,,,,,,,,,,,,,,,,,,,,,,,,,,,,,,,,,,
,,,,,,,pngimages/19_burger.png,Gwen Wojtkun,1098,2021-02-12_15h20.00.756,experiment,2020.1.3,MacIntel,60,,,,,,,,,,,,,,,,,test1,,,,,,,,,,,,,,,,,,,,,,j,0.319775,0,47,47,47,1,trainingaudio/19_papipi3.wav,trainingaudio/19_papipi1.wav,2,trainingaudio/19_papipi1.wav,,,,,,,,,,,,,,,,,,,,,,,,,,,,,,,,,,,
,,,,,,,pngimages/18_donut.png,Gwen Wojtkun,1098,2021-02-12_15h20.00.756,experiment,2020.1.3,MacIntel,60,,,,,,,,,,,,,,,,,test1,,,,,,,,,,,,,,,,,,,,,,f,0.164035,0,48,48,48,1,trainingaudio/18_popata2.wav,trainingaudio/18_popata3.wav,1,trainingaudio/18_popata2.wav,,,,,,,,,,,,,,,,,,,,,,,,,,,,,,,,,,,
,,,,,,,pngimages/11_compass.png,Gwen Wojtkun,1098,2021-02-12_15h20.00.756,experiment,2020.1.3,MacIntel,60,,,,,,,,,,,,,,,,,test1,,,,,,,,,,,,,,,,,,,,,,j,0.36894,0,49,49,49,1,trainingaudio/11_tokiko1.wav,trainingaudio/11_tokiko2.wav,1,trainingaudio/11_tokiko1.wav,,,,,,,,,,,,,,,,,,,,,,,,,,,,,,,,,,,
,,,,,,,pngimages/21_cheese.png,Gwen Wojtkun,1098,2021-02-12_15h20.00.756,experiment,2020.1.3,MacIntel,60,,,,,,,,,,,,,,,,,test1,,,,,,,,,,,,,,,,,,,,,,f,0.372445,0,50,50,50,1,trainingaudio/21_papika1.wav,trainingaudio/21_papika3.wav,1,trainingaudio/21_papika1.wav,,,,,,,,,,,,,,,,,,,,,,,,,,,,,,,,,,,
,,,,,,,pngimages/05_megaphone.png,Gwen Wojtkun,1098,2021-02-12_15h20.00.756,experiment,2020.1.3,MacIntel,60,,,,,,,,,,,,,,,,,test1,,,,,,,,,,,,,,,,,,,,,,j,0.402245,0,51,51,51,1,trainingaudio/05_titopo2.wav,trainingaudio/05_titopo3.wav,1,trainingaudio/05_titopo2.wav,,,,,,,,,,,,,,,,,,,,,,,,,,,,,,,,,,,
,,,,,,,pngimages/26_pineapple.png,Gwen Wojtkun,1098,2021-02-12_15h20.00.756,experiment,2020.1.3,MacIntel,60,,,,,,,,,,,,,,,,,test1,,,,,,,,,,,,,,,,,,,,,,f,0.434105,0,52,52,52,1,trainingaudio/26_kapako1.wav,trainingaudio/26_kapako2.wav,1,trainingaudio/26_kapako1.wav,,,,,,,,,,,,,,,,,,,,,,,,,,,,,,,,,,,
,,,,,,,pngimages/23_lemon.png,Gwen Wojtkun,1098,2021-02-12_15h20.00.756,experiment,2020.1.3,MacIntel,60,,,,,,,,,,,,,,,,,test1,,,,,,,,,,,,,,,,,,,,,,j,0.667365,0,53,53,53,1,trainingaudio/23_patoko1.wav,trainingaudio/23_patoko3.wav,1,trainingaudio/23_patoko1.wav,,,,,,,,,,,,,,,,,,,,,,,,,,,,,,,,,,,
,,,,,,,pngimages/14_coffee.png,Gwen Wojtkun,1098,2021-02-12_15h20.00.756,experiment,2020.1.3,MacIntel,60,,,,,,,,,,,,,,,,,test1,,,,,,,,,,,,,,,,,,,,,,f,0.251545,0,54,54,54,1,trainingaudio/14_pokoto2.wav,trainingaudio/14_pokoto1.wav,2,trainingaudio/14_pokoto1.wav,,,,,,,,,,,,,,,,,,,,,,,,,,,,,,,,,,,
,,,,,,,pngimages/03_box.png,Gwen Wojtkun,1098,2021-02-12_15h20.00.756,experiment,2020.1.3,MacIntel,60,,,,,,,,,,,,,,,,,test1,,,,,,,,,,,,,,,,,,,,,,f,0.3954,0,55,55,55,1,trainingaudio/03_kikita3.wav,trainingaudio/03_kikita1.wav,1,trainingaudio/03_kikita3.wav,,,,,,,,,,,,,,,,,,,,,,,,,,,,,,,,,,,
,,,,,,,pngimages/67_laptop.png,Gwen Wojtkun,1098,2021-02-12_15h20.00.756,experiment,2020.1.3,MacIntel,60,,,,,,,,,,,,,,,,,test2,,,,,,,,,,,,,,,,,,,,,,,,,,,,,novelaudio/67_tokoki1.wav,novelaudio/67_tokoki2.wav,1,,space,51.599535,space,17.06096,j,0.669555,0,0,0,0,1,,,,,,,,,,,,,,,,,,,,,,,,
,,,,,,,pngimages/49_calculator.png,Gwen Wojtkun,1098,2021-02-12_15h20.00.756,experiment,2020.1.3,MacIntel,60,,,,,,,,,,,,,,,,,test2,,,,,,,,,,,,,,,,,,,,,,,,,,,,,novelaudio/49_tatopi3.wav,novelaudio/49_tatopi1.wav,2,,,,,,f,0.634485,0,1,1,1,1,,,,,,,,,,,,,,,,,,,,,,,,
,,,,,,,pngimages/59_umbrella.png,Gwen Wojtkun,1098,2021-02-12_15h20.00.756,experiment,2020.1.3,MacIntel,60,,,,,,,,,,,,,,,,,test2,,,,,,,,,,,,,,,,,,,,,,,,,,,,,novelaudio/59_tipoko2.wav,novelaudio/59_tipoko3.wav,1,,,,,,f,0.81144,0,2,2,2,1,,,,,,,,,,,,,,,,,,,,,,,,
,,,,,,,pngimages/45_scissors.png,Gwen Wojtkun,1098,2021-02-12_15h20.00.756,experiment,2020.1.3,MacIntel,60,,,,,,,,,,,,,,,,,test2,,,,,,,,,,,,,,,,,,,,,,,,,,,,,novelaudio/45_totaka2.wav,novelaudio/45_totaka1.wav,1,,,,,,f,0.47881,0,3,3,3,1,,,,,,,,,,,,,,,,,,,,,,,,
,,,,,,,pngimages/35_skillet.png,Gwen Wojtkun,1098,2021-02-12_15h20.00.756,experiment,2020.1.3,MacIntel,60,,,,,,,,,,,,,,,,,test2,,,,,,,,,,,,,,,,,,,,,,,,,,,,,novelaudio/35_titato2.wav,novelaudio/35_titato1.wav,1,,,,,,f,1.018085,0,4,4,4,1,,,,,,,,,,,,,,,,,,,,,,,,
,,,,,,,pngimages/39_fork.png,Gwen Wojtkun,1098,2021-02-12_15h20.00.756,experiment,2020.1.3,MacIntel,60,,,,,,,,,,,,,,,,,test2,,,,,,,,,,,,,,,,,,,,,,,,,,,,,novelaudio/39_kotipa1.wav,novelaudio/39_kotipa3.wav,2,,,,,,j,0.55193,0,5,5,5,1,,,,,,,,,,,,,,,,,,,,,,,,
,,,,,,,pngimages/68_heart.png,Gwen Wojtkun,1098,2021-02-12_15h20.00.756,experiment,2020.1.3,MacIntel,60,,,,,,,,,,,,,,,,,test2,,,,,,,,,,,,,,,,,,,,,,,,,,,,,novelaudio/68_pokopo2.wav,novelaudio/68_pokopo1.wav,2,,,,,,j,0.303295,0,6,6,6,1,,,,,,,,,,,,,,,,,,,,,,,,
,,,,,,,pngimages/74_boat.png,Gwen Wojtkun,1098,2021-02-12_15h20.00.756,experiment,2020.1.3,MacIntel,60,,,,,,,,,,,,,,,,,test2,,,,,,,,,,,,,,,,,,,,,,,,,,,,,novelaudio/74_tatiko1.wav,novelaudio/74_tatiko2.wav,1,,,,,,f,0.53803,0,7,7,7,1,,,,,,,,,,,,,,,,,,,,,,,,
,,,,,,,pngimages/75_chicken.png,Gwen Wojtkun,1098,2021-02-12_15h20.00.756,experiment,2020.1.3,MacIntel,60,,,,,,,,,,,,,,,,,test2,,,,,,,,,,,,,,,,,,,,,,,,,,,,,novelaudio/75_kakita3.wav,novelaudio/75_kakita1.wav,2,,,,,,f,0.415295,0,8,8,8,1,,,,,,,,,,,,,,,,,,,,,,,,
,,,,,,,pngimages/29_cherry.png,Gwen Wojtkun,1098,2021-02-12_15h20.00.756,experiment,2020.1.3,MacIntel,60,,,,,,,,,,,,,,,,,test2,,,,,,,,,,,,,,,,,,,,,,,,,,,,,novelaudio/29_pipito3.wav,novelaudio/29_pipito2.wav,1,,,,,,j,0.553395,0,9,9,9,1,,,,,,,,,,,,,,,,,,,,,,,,
,,,,,,,pngimages/62_screwdriver.png,Gwen Wojtkun,1098,2021-02-12_15h20.00.756,experiment,2020.1.3,MacIntel,60,,,,,,,,,,,,,,,,,test2,,,,,,,,,,,,,,,,,,,,,,,,,,,,,novelaudio/62_pitako2.wav,novelaudio/62_pitako1.wav,1,,,,,,f,0.30562,0,10,10,10,1,,,,,,,,,,,,,,,,,,,,,,,,
,,,,,,,pngimages/40_spoon.png,Gwen Wojtkun,1098,2021-02-12_15h20.00.756,experiment,2020.1.3,MacIntel,60,,,,,,,,,,,,,,,,,test2,,,,,,,,,,,,,,,,,,,,,,,,,,,,,novelaudio/40_kototi2.wav,novelaudio/40_kototi1.wav,2,,,,,,j,0.374595,0,11,11,11,1,,,,,,,,,,,,,,,,,,,,,,,,
,,,,,,,pngimages/52_newspaper.png,Gwen Wojtkun,1098,2021-02-12_15h20.00.756,experiment,2020.1.3,MacIntel,60,,,,,,,,,,,,,,,,,test2,,,,,,,,,,,,,,,,,,,,,,,,,,,,,novelaudio/52_pakaki3.wav,novelaudio/52_pakaki1.wav,2,,,,,,j,0.04507,0,12,12,12,1,,,,,,,,,,,,,,,,,,,,,,,,
,,,,,,,pngimages/46_paper.png,Gwen Wojtkun,1098,2021-02-12_15h20.00.756,experiment,2020.1.3,MacIntel,60,,,,,,,,,,,,,,,,,test2,,,,,,,,,,,,,,,,,,,,,,,,,,,,,novelaudio/46_tapiti1.wav,novelaudio/46_tapiti2.wav,1,,,,,,f,0.302255,0,13,13,13,1,,,,,,,,,,,,,,,,,,,,,,,,
,,,,,,,pngimages/78_cow.png,Gwen Wojtkun,1098,2021-02-12_15h20.00.756,experiment,2020.1.3,MacIntel,60,,,,,,,,,,,,,,,,,test2,,,,,,,,,,,,,,,,,,,,,,,,,,,,,novelaudio/78_kakoka1.wav,novelaudio/78_kakoka2.wav,1,,,,,,f,0.35213,0,14,14,14,1,,,,,,,,,,,,,,,,,,,,,,,,
,,,,,,,pngimages/37_mug.png,Gwen Wojtkun,1098,2021-02-12_15h20.00.756,experiment,2020.1.3,MacIntel,60,,,,,,,,,,,,,,,,,test2,,,,,,,,,,,,,,,,,,,,,,,,,,,,,novelaudio/37_kokiti1.wav,novelaudio/37_kokiti3.wav,1,,,,,,j,0.484915,0,15,15,15,1,,,,,,,,,,,,,,,,,,,,,,,,
,,,,,,,pngimages/41_piano.png,Gwen Wojtkun,1098,2021-02-12_15h20.00.756,experiment,2020.1.3,MacIntel,60,,,,,,,,,,,,,,,,,test2,,,,,,,,,,,,,,,,,,,,,,,,,,,,,novelaudio/41_pototo1.wav,novelaudio/41_pototo2.wav,1,,,,,,j,0.50581,0,16,16,16,1,,,,,,,,,,,,,,,,,,,,,,,,
,,,,,,,pngimages/50_ruler.png,Gwen Wojtkun,1098,2021-02-12_15h20.00.756,experiment,2020.1.3,MacIntel,60,,,,,,,,,,,,,,,,,test2,,,,,,,,,,,,,,,,,,,,,,,,,,,,,novelaudio/50_katoko2.wav,novelaudio/50_katoko1.wav,2,,,,,,f,0.468175,0,17,17,17,1,,,,,,,,,,,,,,,,,,,,,,,,
,,,,,,,pngimages/72_nose.png,Gwen Wojtkun,1098,2021-02-12_15h20.00.756,experiment,2020.1.3,MacIntel,60,,,,,,,,,,,,,,,,,test2,,,,,,,,,,,,,,,,,,,,,,,,,,,,,novelaudio/72_topata2.wav,novelaudio/72_topata3.wav,1,,,,,,f,0.13904,0,18,18,18,1,,,,,,,,,,,,,,,,,,,,,,,,
,,,,,,,pngimages/64_shovel.png,Gwen Wojtkun,1098,2021-02-12_15h20.00.756,experiment,2020.1.3,MacIntel,60,,,,,,,,,,,,,,,,,test2,,,,,,,,,,,,,,,,,,,,,,,,,,,,,novelaudio/64_popiti3.wav,novelaudio/64_popiti1.wav,2,,,,,,j,0.30702,0,19,19,19,1,,,,,,,,,,,,,,,,,,,,,,,,
,,,,,,,pngimages/61_key.png,Gwen Wojtkun,1098,2021-02-12_15h20.00.756,experiment,2020.1.3,MacIntel,60,,,,,,,,,,,,,,,,,test2,,,,,,,,,,,,,,,,,,,,,,,,,,,,,novelaudio/61_pikati2.wav,novelaudio/61_pikati1.wav,1,,,,,,j,0.28525,0,20,20,20,1,,,,,,,,,,,,,,,,,,,,,,,,
,,,,,,,pngimages/48_brush.png,Gwen Wojtkun,1098,2021-02-12_15h20.00.756,experiment,2020.1.3,MacIntel,60,,,,,,,,,,,,,,,,,test2,,,,,,,,,,,,,,,,,,,,,,,,,,,,,novelaudio/48_pakipa1.wav,novelaudio/48_pakipa3.wav,1,,,,,,f,0.33806,0,21,21,21,1,,,,,,,,,,,,,,,,,,,,,,,,
,,,,,,,pngimages/57_flashlight.png,Gwen Wojtkun,1098,2021-02-12_15h20.00.756,experiment,2020.1.3,MacIntel,60,,,,,,,,,,,,,,,,,test2,,,,,,,,,,,,,,,,,,,,,,,,,,,,,novelaudio/57_tipipa3.wav,novelaudio/57_tipipa1.wav,1,,,,,,j,0.28587,0,22,22,22,1,,,,,,,,,,,,,,,,,,,,,,,,
,,,,,,,pngimages/32_greenpepper.png,Gwen Wojtkun,1098,2021-02-12_15h20.00.756,experiment,2020.1.3,MacIntel,60,,,,,,,,,,,,,,,,,test2,,,,,,,,,,,,,,,,,,,,,,,,,,,,,novelaudio/32_kipoto1.wav,novelaudio/32_kipoto2.wav,2,,,,,,j,0.502455,0,23,23,23,1,,,,,,,,,,,,,,,,,,,,,,,,
,,,,,,,pngimages/54_toiletpaper.png,Gwen Wojtkun,1098,2021-02-12_15h20.00.756,experiment,2020.1.3,MacIntel,60,,,,,,,,,,,,,,,,,test2,,,,,,,,,,,,,,,,,,,,,,,,,,,,,novelaudio/54_kapapa1.wav,novelaudio/54_kapapa2.wav,1,,,,,,f,0.28348,0,24,24,24,1,,,,,,,,,,,,,,,,,,,,,,,,
,,,,,,,pngimages/79_pig.png,Gwen Wojtkun,1098,2021-02-12_15h20.00.756,experiment,2020.1.3,MacIntel,60,,,,,,,,,,,,,,,,,test2,,,,,,,,,,,,,,,,,,,,,,,,,,,,,novelaudio/79_katapi1.wav,novelaudio/79_katapi2.wav,1,,,,,,j,0.06877,0,25,25,25,1,,,,,,,,,,,,,,,,,,,,,,,,
,,,,,,,pngimages/55_toilet.png,Gwen Wojtkun,1098,2021-02-12_15h20.00.756,experiment,2020.1.3,MacIntel,60,,,,,,,,,,,,,,,,,test2,,,,,,,,,,,,,,,,,,,,,,,,,,,,,novelaudio/55_pikiki3.wav,novelaudio/55_pikiki1.wav,2,,,,,,j,0.35283,0,26,26,26,1,,,,,,,,,,,,,,,,,,,,,,,,
,,,,,,,pngimages/43_guitar.png,Gwen Wojtkun,1098,2021-02-12_15h20.00.756,experiment,2020.1.3,MacIntel,60,,,,,,,,,,,,,,,,,test2,,,,,,,,,,,,,,,,,,,,,,,,,,,,,novelaudio/43_potaki3.wav,novelaudio/43_potaki2.wav,2,,,,,,f,0.21127,0,27,27,27,1,,,,,,,,,,,,,,,,,,,,,,,,
,,,,,,,pngimages/53_hammer.png,Gwen Wojtkun,1098,2021-02-12_15h20.00.756,experiment,2020.1.3,MacIntel,60,,,,,,,,,,,,,,,,,test2,,,,,,,,,,,,,,,,,,,,,,,,,,,,,novelaudio/53_patapo1.wav,novelaudio/53_patapo2.wav,1,,,,,,j,0.12634,0,28,28,28,1,,,,,,,,,,,,,,,,,,,,,,,,
,,,,,,,pngimages/66_safe.png,Gwen Wojtkun,1098,2021-02-12_15h20.00.756,experiment,2020.1.3,MacIntel,60,,,,,,,,,,,,,,,,,test2,,,,,,,,,,,,,,,,,,,,,,,,,,,,,novelaudio/66_kopipa2.wav,novelaudio/66_kopipa3.wav,2,,,,,,j,0.487185,0,29,29,29,1,,,,,,,,,,,,,,,,,,,,,,,,
,,,,,,,pngimages/36_microwave.png,Gwen Wojtkun,1098,2021-02-12_15h20.00.756,experiment,2020.1.3,MacIntel,60,,,,,,,,,,,,,,,,,test2,,,,,,,,,,,,,,,,,,,,,,,,,,,,,novelaudio/36_pipapa2.wav,novelaudio/36_pipapa1.wav,1,,,,,,f,0.40646,0,30,30,30,1,,,,,,,,,,,,,,,,,,,,,,,,
,,,,,,,pngimages/81_cat.png,Gwen Wojtkun,1098,2021-02-12_15h20.00.756,experiment,2020.1.3,MacIntel,60,,,,,,,,,,,,,,,,,test2,,,,,,,,,,,,,,,,,,,,,,,,,,,,,novelaudio/81_kakapa3.wav,novelaudio/81_kakapa1.wav,2,,,,,,f,0.30218,0,31,31,31,1,,,,,,,,,,,,,,,,,,,,,,,,
,,,,,,,pngimages/28_grape.png,Gwen Wojtkun,1098,2021-02-12_15h20.00.756,experiment,2020.1.3,MacIntel,60,,,,,,,,,,,,,,,,,test2,,,,,,,,,,,,,,,,,,,,,,,,,,,,,novelaudio/28_pipiki2.wav,novelaudio/28_pipiki1.wav,2,,,,,,j,0.31253,0,32,32,32,1,,,,,,,,,,,,,,,,,,,,,,,,
,,,,,,,pngimages/65_wrench.png,Gwen Wojtkun,1098,2021-02-12_15h20.00.756,experiment,2020.1.3,MacIntel,60,,,,,,,,,,,,,,,,,test2,,,,,,,,,,,,,,,,,,,,,,,,,,,,,novelaudio/65_totipo3.wav,novelaudio/65_totipo1.wav,2,,,,,,j,0.33567,0,33,33,33,1,,,,,,,,,,,,,,,,,,,,,,,,
,,,,,,,pngimages/51_pencil.png,Gwen Wojtkun,1098,2021-02-12_15h20.00.756,experiment,2020.1.3,MacIntel,60,,,,,,,,,,,,,,,,,test2,,,,,,,,,,,,,,,,,,,,,,,,,,,,,novelaudio/51_tapopa1.wav,novelaudio/51_tapopa3.wav,1,,,,,,f,0.201465,0,34,34,34,1,,,,,,,,,,,,,,,,,,,,,,,,
,,,,,,,pngimages/44_envelope.png,Gwen Wojtkun,1098,2021-02-12_15h20.00.756,experiment,2020.1.3,MacIntel,60,,,,,,,,,,,,,,,,,test2,,,,,,,,,,,,,,,,,,,,,,,,,,,,,novelaudio/44_pokato3.wav,novelaudio/44_pokato2.wav,2,,,,,,f,0.373995,0,35,35,35,1,,,,,,,,,,,,,,,,,,,,,,,,
,,,,,,,pngimages/70_hand.png,Gwen Wojtkun,1098,2021-02-12_15h20.00.756,experiment,2020.1.3,MacIntel,60,,,,,,,,,,,,,,,,,test2,,,,,,,,,,,,,,,,,,,,,,,,,,,,,novelaudio/70_kopati1.wav,novelaudio/70_kopati2.wav,2,,,,,,j,0.42073,0,36,36,36,1,,,,,,,,,,,,,,,,,,,,,,,,
,,,,,,,pngimages/31_tomato.png,Gwen Wojtkun,1098,2021-02-12_15h20.00.756,experiment,2020.1.3,MacIntel,60,,,,,,,,,,,,,,,,,test2,,,,,,,,,,,,,,,,,,,,,,,,,,,,,novelaudio/31_kikopi1.wav,novelaudio/31_kikopi2.wav,2,,,,,,f,0.383915,0,37,37,37,1,,,,,,,,,,,,,,,,,,,,,,,,
,,,,,,,pngimages/69_tooth.png,Gwen Wojtkun,1098,2021-02-12_15h20.00.756,experiment,2020.1.3,MacIntel,60,,,,,,,,,,,,,,,,,test2,,,,,,,,,,,,,,,,,,,,,,,,,,,,,novelaudio/69_kotota2.wav,novelaudio/69_kotota3.wav,2,,,,,,j,0.30378,0,38,38,38,1,,,,,,,,,,,,,,,,,,,,,,,,
,,,,,,,pngimages/63_chair.png,Gwen Wojtkun,1098,2021-02-12_15h20.00.756,experiment,2020.1.3,MacIntel,60,,,,,,,,,,,,,,,,,test2,,,,,,,,,,,,,,,,,,,,,,,,,,,,,novelaudio/63_pitapa2.wav,novelaudio/63_pitapa3.wav,1,,,,,,j,0.20077,0,39,39,39,1,,,,,,,,,,,,,,,,,,,,,,,,
,,,,,,,pngimages/42_harp.png,Gwen Wojtkun,1098,2021-02-12_15h20.00.756,experiment,2020.1.3,MacIntel,60,,,,,,,,,,,,,,,,,test2,,,,,,,,,,,,,,,,,,,,,,,,,,,,,novelaudio/42_tokota2.wav,novelaudio/42_tokota3.wav,2,,,,,,f,0.33454,0,40,40,40,1,,,,,,,,,,,,,,,,,,,,,,,,
,,,,,,,pngimages/56_towel.png,Gwen Wojtkun,1098,2021-02-12_15h20.00.756,experiment,2020.1.3,MacIntel,60,,,,,,,,,,,,,,,,,test2,,,,,,,,,,,,,,,,,,,,,,,,,,,,,novelaudio/56_pipiko3.wav,novelaudio/56_pipiko1.wav,1,,,,,,f,0.0972,0,41,41,41,1,,,,,,,,,,,,,,,,,,,,,,,,
,,,,,,,pngimages/77_bear.png,Gwen Wojtkun,1098,2021-02-12_15h20.00.756,experiment,2020.1.3,MacIntel,60,,,,,,,,,,,,,,,,,test2,,,,,,,,,,,,,,,,,,,,,,,,,,,,,novelaudio/77_takopo1.wav,novelaudio/77_takopo3.wav,1,,,,,,f,0.335665,0,42,42,42,1,,,,,,,,,,,,,,,,,,,,,,,,
,,,,,,,pngimages/60_firewood.png,Gwen Wojtkun,1098,2021-02-12_15h20.00.756,experiment,2020.1.3,MacIntel,60,,,,,,,,,,,,,,,,,test2,,,,,,,,,,,,,,,,,,,,,,,,,,,,,novelaudio/60_pipopa3.wav,novelaudio/60_pipopa1.wav,1,,,,,,f,0.72429,0,43,43,43,1,,,,,,,,,,,,,,,,,,,,,,,,
,,,,,,,pngimages/76_rabbit.png,Gwen Wojtkun,1098,2021-02-12_15h20.00.756,experiment,2020.1.3,MacIntel,60,,,,,,,,,,,,,,,,,test2,,,,,,,,,,,,,,,,,,,,,,,,,,,,,novelaudio/76_patoti1.wav,novelaudio/76_patoti2.wav,1,,,,,,j,0.410435,0,44,44,44,1,,,,,,,,,,,,,,,,,,,,,,,,
,,,,,,,pngimages/80_dog.png,Gwen Wojtkun,1098,2021-02-12_15h20.00.756,experiment,2020.1.3,MacIntel,60,,,,,,,,,,,,,,,,,test2,,,,,,,,,,,,,,,,,,,,,,,,,,,,,novelaudio/80_tatato2.wav,novelaudio/80_tatato1.wav,2,,,,,,f,0.401255,0,45,45,45,1,,,,,,,,,,,,,,,,,,,,,,,,
,,,,,,,pngimages/47_notebook.png,Gwen Wojtkun,1098,2021-02-12_15h20.00.756,experiment,2020.1.3,MacIntel,60,,,,,,,,,,,,,,,,,test2,,,,,,,,,,,,,,,,,,,,,,,,,,,,,novelaudio/47_takiko1.wav,novelaudio/47_takiko2.wav,1,,,,,,j,0.265225,0,46,46,46,1,,,,,,,,,,,,,,,,,,,,,,,,
,,,,,,,pngimages/73_car.png,Gwen Wojtkun,1098,2021-02-12_15h20.00.756,experiment,2020.1.3,MacIntel,60,,,,,,,,,,,,,,,,,test2,,,,,,,,,,,,,,,,,,,,,,,,,,,,,novelaudio/73_takiti2.wav,novelaudio/73_takiti1.wav,2,,,,,,j,0.53238,0,47,47,47,1,,,,,,,,,,,,,,,,,,,,,,,,
,,,,,,,pngimages/58_nail.png,Gwen Wojtkun,1098,2021-02-12_15h20.00.756,experiment,2020.1.3,MacIntel,60,,,,,,,,,,,,,,,,,test2,,,,,,,,,,,,,,,,,,,,,,,,,,,,,novelaudio/58_kipoki3.wav,novelaudio/58_kipoki2.wav,2,,,,,,f,0.318845,0,48,48,48,1,,,,,,,,,,,,,,,,,,,,,,,,
,,,,,,,pngimages/71_eye.png,Gwen Wojtkun,1098,2021-02-12_15h20.00.756,experiment,2020.1.3,MacIntel,60,,,,,,,,,,,,,,,,,test2,,,,,,,,,,,,,,,,,,,,,,,,,,,,,novelaudio/71_kotato1.wav,novelaudio/71_kotato2.wav,2,,,,,,j,0.23638,0,49,49,49,1,,,,,,,,,,,,,,,,,,,,,,,,
,,,,,,,pngimages/34_knife.png,Gwen Wojtkun,1098,2021-02-12_15h20.00.756,experiment,2020.1.3,MacIntel,60,,,,,,,,,,,,,,,,,test2,,,,,,,,,,,,,,,,,,,,,,,,,,,,,novelaudio/34_kipaki2.wav,novelaudio/34_kipaki1.wav,1,,,,,,f,0.83571,0,50,50,50,1,,,,,,,,,,,,,,,,,,,,,,,,
,,,,,,,pngimages/33_watermelon.png,Gwen Wojtkun,1098,2021-02-12_15h20.00.756,experiment,2020.1.3,MacIntel,60,,,,,,,,,,,,,,,,,test2,,,,,,,,,,,,,,,,,,,,,,,,,,,,,novelaudio/33_tipoka1.wav,novelaudio/33_tipoka3.wav,2,,,,,,j,1.29319,0,51,51,51,1,,,,,,,,,,,,,,,,,,,,,,,,
,,,,,,,pngimages/30_mushroom.png,Gwen Wojtkun,1098,2021-02-12_15h20.00.756,experiment,2020.1.3,MacIntel,60,,,,,,,,,,,,,,,,,test2,,,,,,,,,,,,,,,,,,,,,,,,,,,,,novelaudio/30_tikipa3.wav,novelaudio/30_tikipa2.wav,1,,,,,,f,0.74064,0,52,52,52,1,,,,,,,,,,,,,,,,,,,,,,,,
,,,,,,,pngimages/38_plate.png,Gwen Wojtkun,1098,2021-02-12_15h20.00.756,experiment,2020.1.3,MacIntel,60,,,,,,,,,,,,,,,,,test2,,,,,,,,,,,,,,,,,,,,,,,,,,,,,novelaudio/38_kokiko2.wav,novelaudio/38_kokiko1.wav,2,,,,,,j,0.53456,0,53,53,53,1,,,,,,,,,,,,,,,,,,,,,,,,
,,,,,,,pngimages/65_wrench.png,Gwen Wojtkun,1098,2021-02-12_15h20.00.756,experiment,2020.1.3,MacIntel,60,,,,,,,,,,,,,,,,,test3,,,,,,,,,,,,,,,,,,,,,,,,,,,,,novelaudio/65_totipo1.wav,novelaudio/65_totipo3.wav,1,,,,,,,,,,,,,space,90.54187,j,0.441975,0,0,0,0,1,,,,,,,,,,,,,,,
,,,,,,,pngimages/68_heart.png,Gwen Wojtkun,1098,2021-02-12_15h20.00.756,experiment,2020.1.3,MacIntel,60,,,,,,,,,,,,,,,,,test3,,,,,,,,,,,,,,,,,,,,,,,,,,,,,novelaudio/68_pokopo2.wav,novelaudio/68_pokopo1.wav,2,,,,,,,,,,,,,,,f,0.78255,0,1,1,1,1,,,,,,,,,,,,,,,
,,,,,,,pngimages/49_calculator.png,Gwen Wojtkun,1098,2021-02-12_15h20.00.756,experiment,2020.1.3,MacIntel,60,,,,,,,,,,,,,,,,,test3,,,,,,,,,,,,,,,,,,,,,,,,,,,,,novelaudio/49_tatopi1.wav,novelaudio/49_tatopi3.wav,1,,,,,,,,,,,,,,,f,0.8853,0,2,2,2,1,,,,,,,,,,,,,,,
,,,,,,,pngimages/45_scissors.png,Gwen Wojtkun,1098,2021-02-12_15h20.00.756,experiment,2020.1.3,MacIntel,60,,,,,,,,,,,,,,,,,test3,,,,,,,,,,,,,,,,,,,,,,,,,,,,,novelaudio/45_totaka2.wav,novelaudio/45_totaka3.wav,1,,,,,,,,,,,,,,,j,0.31845,0,3,3,3,1,,,,,,,,,,,,,,,
,,,,,,,pngimages/58_nail.png,Gwen Wojtkun,1098,2021-02-12_15h20.00.756,experiment,2020.1.3,MacIntel,60,,,,,,,,,,,,,,,,,test3,,,,,,,,,,,,,,,,,,,,,,,,,,,,,novelaudio/58_kipoki2.wav,novelaudio/58_kipoki3.wav,1,,,,,,,,,,,,,,,f,0.30324,0,4,4,4,1,,,,,,,,,,,,,,,
,,,,,,,pngimages/31_tomato.png,Gwen Wojtkun,1098,2021-02-12_15h20.00.756,experiment,2020.1.3,MacIntel,60,,,,,,,,,,,,,,,,,test3,,,,,,,,,,,,,,,,,,,,,,,,,,,,,novelaudio/31_kikopi2.wav,novelaudio/31_kikopi3.wav,1,,,,,,,,,,,,,,,f,0.28409,0,5,5,5,1,,,,,,,,,,,,,,,
,,,,,,,pngimages/46_paper.png,Gwen Wojtkun,1098,2021-02-12_15h20.00.756,experiment,2020.1.3,MacIntel,60,,,,,,,,,,,,,,,,,test3,,,,,,,,,,,,,,,,,,,,,,,,,,,,,novelaudio/46_tapiti2.wav,novelaudio/46_tapiti1.wav,2,,,,,,,,,,,,,,,j,0.41704,0,6,6,6,1,,,,,,,,,,,,,,,
,,,,,,,pngimages/33_watermelon.png,Gwen Wojtkun,1098,2021-02-12_15h20.00.756,experiment,2020.1.3,MacIntel,60,,,,,,,,,,,,,,,,,test3,,,,,,,,,,,,,,,,,,,,,,,,,,,,,novelaudio/33_tipoka3.wav,novelaudio/33_tipoka2.wav,1,,,,,,,,,,,,,,,f,0.26677,0,7,7,7,1,,,,,,,,,,,,,,,
,,,,,,,pngimages/29_cherry.png,Gwen Wojtkun,1098,2021-02-12_15h20.00.756,experiment,2020.1.3,MacIntel,60,,,,,,,,,,,,,,,,,test3,,,,,,,,,,,,,,,,,,,,,,,,,,,,,novelaudio/29_pipito3.wav,novelaudio/29_pipito1.wav,1,,,,,,,,,,,,,,,f,0.31661,0,8,8,8,1,,,,,,,,,,,,,,,
,,,,,,,pngimages/41_piano.png,Gwen Wojtkun,1098,2021-02-12_15h20.00.756,experiment,2020.1.3,MacIntel,60,,,,,,,,,,,,,,,,,test3,,,,,,,,,,,,,,,,,,,,,,,,,,,,,novelaudio/41_pototo1.wav,novelaudio/41_pototo2.wav,1,,,,,,,,,,,,,,,j,0.352215,0,9,9,9,1,,,,,,,,,,,,,,,
,,,,,,,pngimages/67_laptop.png,Gwen Wojtkun,1098,2021-02-12_15h20.00.756,experiment,2020.1.3,MacIntel,60,,,,,,,,,,,,,,,,,test3,,,,,,,,,,,,,,,,,,,,,,,,,,,,,novelaudio/67_tokoki2.wav,novelaudio/67_tokoki1.wav,2,,,,,,,,,,,,,,,j,0.636045,0,10,10,10,1,,,,,,,,,,,,,,,
,,,,,,,pngimages/43_guitar.png,Gwen Wojtkun,1098,2021-02-12_15h20.00.756,experiment,2020.1.3,MacIntel,60,,,,,,,,,,,,,,,,,test3,,,,,,,,,,,,,,,,,,,,,,,,,,,,,novelaudio/43_potaki2.wav,novelaudio/43_potaki3.wav,1,,,,,,,,,,,,,,,f,0.40241,0,11,11,11,1,,,,,,,,,,,,,,,
,,,,,,,pngimages/69_tooth.png,Gwen Wojtkun,1098,2021-02-12_15h20.00.756,experiment,2020.1.3,MacIntel,60,,,,,,,,,,,,,,,,,test3,,,,,,,,,,,,,,,,,,,,,,,,,,,,,novelaudio/69_kotota1.wav,novelaudio/69_kotota3.wav,2,,,,,,,,,,,,,,,j,0.2647,0,12,12,12,1,,,,,,,,,,,,,,,
,,,,,,,pngimages/79_pig.png,Gwen Wojtkun,1098,2021-02-12_15h20.00.756,experiment,2020.1.3,MacIntel,60,,,,,,,,,,,,,,,,,test3,,,,,,,,,,,,,,,,,,,,,,,,,,,,,novelaudio/79_katapi1.wav,novelaudio/79_katapi2.wav,1,,,,,,,,,,,,,,,j,0.33574,0,13,13,13,1,,,,,,,,,,,,,,,
,,,,,,,pngimages/44_envelope.png,Gwen Wojtkun,1098,2021-02-12_15h20.00.756,experiment,2020.1.3,MacIntel,60,,,,,,,,,,,,,,,,,test3,,,,,,,,,,,,,,,,,,,,,,,,,,,,,novelaudio/44_pokato1.wav,novelaudio/44_pokato2.wav,2,,,,,,,,,,,,,,,f,0.29499,0,14,14,14,1,,,,,,,,,,,,,,,
,,,,,,,pngimages/80_dog.png,Gwen Wojtkun,1098,2021-02-12_15h20.00.756,experiment,2020.1.3,MacIntel,60,,,,,,,,,,,,,,,,,test3,,,,,,,,,,,,,,,,,,,,,,,,,,,,,novelaudio/80_tatato1.wav,novelaudio/80_tatato2.wav,1,,,,,,,,,,,,,,,j,0.399975,0,15,15,15,1,,,,,,,,,,,,,,,
,,,,,,,pngimages/55_toilet.png,Gwen Wojtkun,1098,2021-02-12_15h20.00.756,experiment,2020.1.3,MacIntel,60,,,,,,,,,,,,,,,,,test3,,,,,,,,,,,,,,,,,,,,,,,,,,,,,novelaudio/55_pikiki1.wav,novelaudio/55_pikiki3.wav,1,,,,,,,,,,,,,,,f,0.33331,0,16,16,16,1,,,,,,,,,,,,,,,
,,,,,,,pngimages/72_nose.png,Gwen Wojtkun,1098,2021-02-12_15h20.00.756,experiment,2020.1.3,MacIntel,60,,,,,,,,,,,,,,,,,test3,,,,,,,,,,,,,,,,,,,,,,,,,,,,,novelaudio/72_topata3.wav,novelaudio/72_topata2.wav,2,,,,,,,,,,,,,,,j,0.27104,0,17,17,17,1,,,,,,,,,,,,,,,
,,,,,,,pngimages/62_screwdriver.png,Gwen Wojtkun,1098,2021-02-12_15h20.00.756,experiment,2020.1.3,MacIntel,60,,,,,,,,,,,,,,,,,test3,,,,,,,,,,,,,,,,,,,,,,,,,,,,,novelaudio/62_pitako3.wav,novelaudio/62_pitako2.wav,2,,,,,,,,,,,,,,,f,0.46862,0,18,18,18,1,,,,,,,,,,,,,,,
,,,,,,,pngimages/35_skillet.png,Gwen Wojtkun,1098,2021-02-12_15h20.00.756,experiment,2020.1.3,MacIntel,60,,,,,,,,,,,,,,,,,test3,,,,,,,,,,,,,,,,,,,,,,,,,,,,,novelaudio/35_titato2.wav,novelaudio/35_titato3.wav,1,,,,,,,,,,,,,,,j,0.40187,0,19,19,19,1,,,,,,,,,,,,,,,
,,,,,,,pngimages/50_ruler.png,Gwen Wojtkun,1098,2021-02-12_15h20.00.756,experiment,2020.1.3,MacIntel,60,,,,,,,,,,,,,,,,,test3,,,,,,,,,,,,,,,,,,,,,,,,,,,,,novelaudio/50_katoko3.wav,novelaudio/50_katoko1.wav,2,,,,,,,,,,,,,,,f,0.362575,0,20,20,20,1,,,,,,,,,,,,,,,
,,,,,,,pngimages/59_umbrella.png,Gwen Wojtkun,1098,2021-02-12_15h20.00.756,experiment,2020.1.3,MacIntel,60,,,,,,,,,,,,,,,,,test3,,,,,,,,,,,,,,,,,,,,,,,,,,,,,novelaudio/59_tipoko2.wav,novelaudio/59_tipoko3.wav,1,,,,,,,,,,,,,,,j,0.301875,0,21,21,21,1,,,,,,,,,,,,,,,
,,,,,,,pngimages/47_notebook.png,Gwen Wojtkun,1098,2021-02-12_15h20.00.756,experiment,2020.1.3,MacIntel,60,,,,,,,,,,,,,,,,,test3,,,,,,,,,,,,,,,,,,,,,,,,,,,,,novelaudio/47_takiko3.wav,novelaudio/47_takiko1.wav,2,,,,,,,,,,,,,,,j,0.433935,0,22,22,22,1,,,,,,,,,,,,,,,
,,,,,,,pngimages/28_grape.png,Gwen Wojtkun,1098,2021-02-12_15h20.00.756,experiment,2020.1.3,MacIntel,60,,,,,,,,,,,,,,,,,test3,,,,,,,,,,,,,,,,,,,,,,,,,,,,,novelaudio/28_pipiki3.wav,novelaudio/28_pipiki1.wav,2,,,,,,,,,,,,,,,f,0.32129,0,23,23,23,1,,,,,,,,,,,,,,,
,,,,,,,pngimages/64_shovel.png,Gwen Wojtkun,1098,2021-02-12_15h20.00.756,experiment,2020.1.3,MacIntel,60,,,,,,,,,,,,,,,,,test3,,,,,,,,,,,,,,,,,,,,,,,,,,,,,novelaudio/64_popiti1.wav,novelaudio/64_popiti2.wav,1,,,,,,,,,,,,,,,f,0.38367,0,24,24,24,1,,,,,,,,,,,,,,,
,,,,,,,pngimages/34_knife.png,Gwen Wojtkun,1098,2021-02-12_15h20.00.756,experiment,2020.1.3,MacIntel,60,,,,,,,,,,,,,,,,,test3,,,,,,,,,,,,,,,,,,,,,,,,,,,,,novelaudio/34_kipaki2.wav,novelaudio/34_kipaki3.wav,1,,,,,,,,,,,,,,,j,0.396675,0,25,25,25,1,,,,,,,,,,,,,,,
,,,,,,,pngimages/48_brush.png,Gwen Wojtkun,1098,2021-02-12_15h20.00.756,experiment,2020.1.3,MacIntel,60,,,,,,,,,,,,,,,,,test3,,,,,,,,,,,,,,,,,,,,,,,,,,,,,novelaudio/48_pakipa2.wav,novelaudio/48_pakipa1.wav,2,,,,,,,,,,,,,,,f,0.445085,0,26,26,26,1,,,,,,,,,,,,,,,
,,,,,,,pngimages/56_towel.png,Gwen Wojtkun,1098,2021-02-12_15h20.00.756,experiment,2020.1.3,MacIntel,60,,,,,,,,,,,,,,,,,test3,,,,,,,,,,,,,,,,,,,,,,,,,,,,,novelaudio/56_pipiko2.wav,novelaudio/56_pipiko3.wav,2,,,,,,,,,,,,,,,j,0.39931,0,27,27,27,1,,,,,,,,,,,,,,,
,,,,,,,pngimages/81_cat.png,Gwen Wojtkun,1098,2021-02-12_15h20.00.756,experiment,2020.1.3,MacIntel,60,,,,,,,,,,,,,,,,,test3,,,,,,,,,,,,,,,,,,,,,,,,,,,,,novelaudio/81_kakapa1.wav,novelaudio/81_kakapa3.wav,1,,,,,,,,,,,,,,,f,0.21741,0,28,28,28,1,,,,,,,,,,,,,,,
,,,,,,,pngimages/32_greenpepper.png,Gwen Wojtkun,1098,2021-02-12_15h20.00.756,experiment,2020.1.3,MacIntel,60,,,,,,,,,,,,,,,,,test3,,,,,,,,,,,,,,,,,,,,,,,,,,,,,novelaudio/32_kipoto2.wav,novelaudio/32_kipoto3.wav,1,,,,,,,,,,,,,,,j,0.662015,0,29,29,29,1,,,,,,,,,,,,,,,
,,,,,,,pngimages/57_flashlight.png,Gwen Wojtkun,1098,2021-02-12_15h20.00.756,experiment,2020.1.3,MacIntel,60,,,,,,,,,,,,,,,,,test3,,,,,,,,,,,,,,,,,,,,,,,,,,,,,novelaudio/57_tipipa3.wav,novelaudio/57_tipipa1.wav,1,,,,,,,,,,,,,,,j,0.32307,0,30,30,30,1,,,,,,,,,,,,,,,
,,,,,,,pngimages/78_cow.png,Gwen Wojtkun,1098,2021-02-12_15h20.00.756,experiment,2020.1.3,MacIntel,60,,,,,,,,,,,,,,,,,test3,,,,,,,,,,,,,,,,,,,,,,,,,,,,,novelaudio/78_kakoka3.wav,novelaudio/78_kakoka1.wav,2,,,,,,,,,,,,,,,f,0.53651,0,31,31,31,1,,,,,,,,,,,,,,,
,,,,,,,pngimages/61_key.png,Gwen Wojtkun,1098,2021-02-12_15h20.00.756,experiment,2020.1.3,MacIntel,60,,,,,,,,,,,,,,,,,test3,,,,,,,,,,,,,,,,,,,,,,,,,,,,,novelaudio/61_pikati1.wav,novelaudio/61_pikati2.wav,2,,,,,,,,,,,,,,,j,0.28064,0,32,32,32,1,,,,,,,,,,,,,,,
,,,,,,,pngimages/37_mug.png,Gwen Wojtkun,1098,2021-02-12_15h20.00.756,experiment,2020.1.3,MacIntel,60,,,,,,,,,,,,,,,,,test3,,,,,,,,,,,,,,,,,,,,,,,,,,,,,novelaudio/37_kokiti3.wav,novelaudio/37_kokiti1.wav,2,,,,,,,,,,,,,,,f,0.48495,0,33,33,33,1,,,,,,,,,,,,,,,
,,,,,,,pngimages/39_fork.png,Gwen Wojtkun,1098,2021-02-12_15h20.00.756,experiment,2020.1.3,MacIntel,60,,,,,,,,,,,,,,,,,test3,,,,,,,,,,,,,,,,,,,,,,,,,,,,,novelaudio/39_kotipa2.wav,novelaudio/39_kotipa3.wav,2,,,,,,,,,,,,,,,j,0.42022,0,34,34,34,1,,,,,,,,,,,,,,,
,,,,,,,pngimages/51_pencil.png,Gwen Wojtkun,1098,2021-02-12_15h20.00.756,experiment,2020.1.3,MacIntel,60,,,,,,,,,,,,,,,,,test3,,,,,,,,,,,,,,,,,,,,,,,,,,,,,novelaudio/51_tapopa2.wav,novelaudio/51_tapopa1.wav,2,,,,,,,,,,,,,,,f,0.41884,0,35,35,35,1,,,,,,,,,,,,,,,
,,,,,,,pngimages/36_microwave.png,Gwen Wojtkun,1098,2021-02-12_15h20.00.756,experiment,2020.1.3,MacIntel,60,,,,,,,,,,,,,,,,,test3,,,,,,,,,,,,,,,,,,,,,,,,,,,,,novelaudio/36_pipapa2.wav,novelaudio/36_pipapa3.wav,1,,,,,,,,,,,,,,,j,0.36732,0,36,36,36,1,,,,,,,,,,,,,,,
,,,,,,,pngimages/53_hammer.png,Gwen Wojtkun,1098,2021-02-12_15h20.00.756,experiment,2020.1.3,MacIntel,60,,,,,,,,,,,,,,,,,test3,,,,,,,,,,,,,,,,,,,,,,,,,,,,,novelaudio/53_patapo3.wav,novelaudio/53_patapo1.wav,2,,,,,,,,,,,,,,,f,0.568065,0,37,37,37,1,,,,,,,,,,,,,,,
,,,,,,,pngimages/38_plate.png,Gwen Wojtkun,1098,2021-02-12_15h20.00.756,experiment,2020.1.3,MacIntel,60,,,,,,,,,,,,,,,,,test3,,,,,,,,,,,,,,,,,,,,,,,,,,,,,novelaudio/38_kokiko2.wav,novelaudio/38_kokiko1.wav,2,,,,,,,,,,,,,,,j,0.16614,0,38,38,38,1,,,,,,,,,,,,,,,
,,,,,,,pngimages/74_boat.png,Gwen Wojtkun,1098,2021-02-12_15h20.00.756,experiment,2020.1.3,MacIntel,60,,,,,,,,,,,,,,,,,test3,,,,,,,,,,,,,,,,,,,,,,,,,,,,,novelaudio/74_tatiko1.wav,novelaudio/74_tatiko2.wav,1,,,,,,,,,,,,,,,f,0.701245,0,39,39,39,1,,,,,,,,,,,,,,,
,,,,,,,pngimages/63_chair.png,Gwen Wojtkun,1098,2021-02-12_15h20.00.756,experiment,2020.1.3,MacIntel,60,,,,,,,,,,,,,,,,,test3,,,,,,,,,,,,,,,,,,,,,,,,,,,,,novelaudio/63_pitapa1.wav,novelaudio/63_pitapa2.wav,2,,,,,,,,,,,,,,,j,0.28402,0,40,40,40,1,,,,,,,,,,,,,,,
,,,,,,,pngimages/77_bear.png,Gwen Wojtkun,1098,2021-02-12_15h20.00.756,experiment,2020.1.3,MacIntel,60,,,,,,,,,,,,,,,,,test3,,,,,,,,,,,,,,,,,,,,,,,,,,,,,novelaudio/77_takopo3.wav,novelaudio/77_takopo1.wav,2,,,,,,,,,,,,,,,f,0.353715,0,41,41,41,1,,,,,,,,,,,,,,,
,,,,,,,pngimages/52_newspaper.png,Gwen Wojtkun,1098,2021-02-12_15h20.00.756,experiment,2020.1.3,MacIntel,60,,,,,,,,,,,,,,,,,test3,,,,,,,,,,,,,,,,,,,,,,,,,,,,,novelaudio/52_pakaki1.wav,novelaudio/52_pakaki3.wav,1,,,,,,,,,,,,,,,j,0.450235,0,42,42,42,1,,,,,,,,,,,,,,,
,,,,,,,pngimages/30_mushroom.png,Gwen Wojtkun,1098,2021-02-12_15h20.00.756,experiment,2020.1.3,MacIntel,60,,,,,,,,,,,,,,,,,test3,,,,,,,,,,,,,,,,,,,,,,,,,,,,,novelaudio/30_tikipa3.wav,novelaudio/30_tikipa2.wav,1,,,,,,,,,,,,,,,j,0.7324,0,43,43,43,1,,,,,,,,,,,,,,,
,,,,,,,pngimages/70_hand.png,Gwen Wojtkun,1098,2021-02-12_15h20.00.756,experiment,2020.1.3,MacIntel,60,,,,,,,,,,,,,,,,,test3,,,,,,,,,,,,,,,,,,,,,,,,,,,,,novelaudio/70_kopati3.wav,novelaudio/70_kopati2.wav,2,,,,,,,,,,,,,,,j,0.834,0,44,44,44,1,,,,,,,,,,,,,,,
,,,,,,,pngimages/60_firewood.png,Gwen Wojtkun,1098,2021-02-12_15h20.00.756,experiment,2020.1.3,MacIntel,60,,,,,,,,,,,,,,,,,test3,,,,,,,,,,,,,,,,,,,,,,,,,,,,,novelaudio/60_pipopa3.wav,novelaudio/60_pipopa1.wav,1,,,,,,,,,,,,,,,f,0.30046,0,45,45,45,1,,,,,,,,,,,,,,,
,,,,,,,pngimages/75_chicken.png,Gwen Wojtkun,1098,2021-02-12_15h20.00.756,experiment,2020.1.3,MacIntel,60,,,,,,,,,,,,,,,,,test3,,,,,,,,,,,,,,,,,,,,,,,,,,,,,novelaudio/75_kakita3.wav,novelaudio/75_kakita1.wav,2,,,,,,,,,,,,,,,f,0.482495,0,46,46,46,1,,,,,,,,,,,,,,,
,,,,,,,pngimages/54_toiletpaper.png,Gwen Wojtkun,1098,2021-02-12_15h20.00.756,experiment,2020.1.3,MacIntel,60,,,,,,,,,,,,,,,,,test3,,,,,,,,,,,,,,,,,,,,,,,,,,,,,novelaudio/54_kapapa3.wav,novelaudio/54_kapapa1.wav,2,,,,,,,,,,,,,,,f,0.449355,0,47,47,47,1,,,,,,,,,,,,,,,
,,,,,,,pngimages/71_eye.png,Gwen Wojtkun,1098,2021-02-12_15h20.00.756,experiment,2020.1.3,MacIntel,60,,,,,,,,,,,,,,,,,test3,,,,,,,,,,,,,,,,,,,,,,,,,,,,,novelaudio/71_kotato1.wav,novelaudio/71_kotato2.wav,2,,,,,,,,,,,,,,,f,0.416615,0,48,48,48,1,,,,,,,,,,,,,,,
,,,,,,,pngimages/42_harp.png,Gwen Wojtkun,1098,2021-02-12_15h20.00.756,experiment,2020.1.3,MacIntel,60,,,,,,,,,,,,,,,,,test3,,,,,,,,,,,,,,,,,,,,,,,,,,,,,novelaudio/42_tokota3.wav,novelaudio/42_tokota1.wav,1,,,,,,,,,,,,,,,f,0.38453,0,49,49,49,1,,,,,,,,,,,,,,,
,,,,,,,pngimages/66_safe.png,Gwen Wojtkun,1098,2021-02-12_15h20.00.756,experiment,2020.1.3,MacIntel,60,,,,,,,,,,,,,,,,,test3,,,,,,,,,,,,,,,,,,,,,,,,,,,,,novelaudio/66_kopipa3.wav,novelaudio/66_kopipa2.wav,1,,,,,,,,,,,,,,,j,0.41649,0,50,50,50,1,,,,,,,,,,,,,,,
,,,,,,,pngimages/73_car.png,Gwen Wojtkun,1098,2021-02-12_15h20.00.756,experiment,2020.1.3,MacIntel,60,,,,,,,,,,,,,,,,,test3,,,,,,,,,,,,,,,,,,,,,,,,,,,,,novelaudio/73_takiti2.wav,novelaudio/73_takiti1.wav,2,,,,,,,,,,,,,,,j,0.23234,0,51,51,51,1,,,,,,,,,,,,,,,
,,,,,,,pngimages/40_spoon.png,Gwen Wojtkun,1098,2021-02-12_15h20.00.756,experiment,2020.1.3,MacIntel,60,,,,,,,,,,,,,,,,,test3,,,,,,,,,,,,,,,,,,,,,,,,,,,,,novelaudio/40_kototi2.wav,novelaudio/40_kototi1.wav,2,,,,,,,,,,,,,,,j,0.46069,0,52,52,52,1,,,,,,,,,,,,,,,
,,,,,,,pngimages/76_rabbit.png,Gwen Wojtkun,1098,2021-02-12_15h20.00.756,experiment,2020.1.3,MacIntel,60,,,,,,,,,,,,,,,,,test3,,,,,,,,,,,,,,,,,,,,,,,,,,,,,novelaudio/76_patoti1.wav,novelaudio/76_patoti2.wav,1,,,,,,,,,,,,,,,f,0.31841,0,53,53,53,1,,,,,,,,,,,,,,,
,,,,,,,,Gwen Wojtkun,1098,2021-02-12_15h20.00.756,experiment,2020.1.3,MacIntel,60,,,,,,,,,,,,,,,,,postTest,,,,,,,,,,,,,,,,,,,,,,,,,,,,,,,,,,,,,,,,,,,,,,,,,,,,,space,12.882665,f,2.401975,0,0,0,0,1,postTest/82_tipiko1.wav,postTest/82_tipiko1.wav,postTest/82_tipiko3.wav,audioA,,
,,,,,,,,Gwen Wojtkun,1098,2021-02-12_15h20.00.756,experiment,2020.1.3,MacIntel,60,,,,,,,,,,,,,,,,,postTest,,,,,,,,,,,,,,,,,,,,,,,,,,,,,,,,,,,,,,,,,,,,,,,,,,,,,,,f,0.46984,0,1,1,1,1,postTest/83_pitita3.wav,postTest/83_pitita3.wav,postTest/83_pitita2.wav,audioA,,
,,,,,,,,Gwen Wojtkun,1098,2021-02-12_15h20.00.756,experiment,2020.1.3,MacIntel,60,,,,,,,,,,,,,,,,,postTest,,,,,,,,,,,,,,,,,,,,,,,,,,,,,,,,,,,,,,,,,,,,,,,,,,,,,,,j,0.26251,0,2,2,2,1,postTest/84_pitoka3.wav,postTest/84_pitoka1.wav,postTest/84_pitoka1.wav,audioB,,
,,,,,,,,Gwen Wojtkun,1098,2021-02-12_15h20.00.756,experiment,2020.1.3,MacIntel,60,,,,,,,,,,,,,,,,,postTest,,,,,,,,,,,,,,,,,,,,,,,,,,,,,,,,,,,,,,,,,,,,,,,,,,,,,,,f,0.38581,0,3,3,3,1,postTest/85_kipata2.wav,postTest/85_kipata2.wav,postTest/85_kipata3.wav,audioA,,
,,,,,,,,Gwen Wojtkun,1098,2021-02-12_15h20.00.756,experiment,2020.1.3,MacIntel,60,,,,,,,,,,,,,,,,,postTest,,,,,,,,,,,,,,,,,,,,,,,,,,,,,,,,,,,,,,,,,,,,,,,,,,,,,,,j,0.473535,0,4,4,4,1,postTest/86_totipa2.wav,postTest/86_totipa1.wav,postTest/86_totipa1.wav,audioB,,
,,,,,,,,Gwen Wojtkun,1098,2021-02-12_15h20.00.756,experiment,2020.1.3,MacIntel,60,,,,,,,,,,,,,,,,,postTest,,,,,,,,,,,,,,,,,,,,,,,,,,,,,,,,,,,,,,,,,,,,,,,,,,,,,,,j,0.08508,0,5,5,5,1,postTest/87_kopoko1.wav,postTest/87_kopoko3.wav,postTest/87_kopoko3.wav,audioB,,
,,,,,,,,Gwen Wojtkun,1098,2021-02-12_15h20.00.756,experiment,2020.1.3,MacIntel,60,,,,,,,,,,,,,,,,,postTest,,,,,,,,,,,,,,,,,,,,,,,,,,,,,,,,,,,,,,,,,,,,,,,,,,,,,,,f,0.361065,0,6,6,6,1,postTest/88_pokota2.wav,postTest/88_pokota2.wav,postTest/88_pokota1.wav,audioA,,
,,,,,,,,Gwen Wojtkun,1098,2021-02-12_15h20.00.756,experiment,2020.1.3,MacIntel,60,,,,,,,,,,,,,,,,,postTest,,,,,,,,,,,,,,,,,,,,,,,,,,,,,,,,,,,,,,,,,,,,,,,,,,,,,,,j,0.31351,0,7,7,7,1,postTest/89_totako3.wav,postTest/89_totako2.wav,postTest/89_totako2.wav,audioB,,
,,,,,,,,Gwen Wojtkun,1098,2021-02-12_15h20.00.756,experiment,2020.1.3,MacIntel,60,,,,,,,,,,,,,,,,,postTest,,,,,,,,,,,,,,,,,,,,,,,,,,,,,,,,,,,,,,,,,,,,,,,,,,,,,,,j,0.35586,0,8,8,8,1,postTest/90_papiki2.wav,postTest/90_papiki3.wav,postTest/90_papiki3.wav,audioB,,
,,,,,,,,Gwen Wojtkun,1098,2021-02-12_15h20.00.756,experiment,2020.1.3,MacIntel,60,,,,,,,,,,,,,,,,,postTest,,,,,,,,,,,,,,,,,,,,,,,,,,,,,,,,,,,,,,,,,,,,,,,,,,,,,,,f,0.47668,0,9,9,9,1,postTest/91_papipo1.wav,postTest/91_papipo1.wav,postTest/91_papipo2.wav,audioA,,
,,,,,,,,Gwen Wojtkun,1098,2021-02-12_15h20.00.756,experiment,2020.1.3,MacIntel,60,,,,,,,,,,,,,,,,,postTest,,,,,,,,,,,,,,,,,,,,,,,,,,,,,,,,,,,,,,,,,,,,,,,,,,,,,,,j,0.33671,0,10,10,10,1,postTest/92_katoki1.wav,postTest/92_katoki2.wav,postTest/92_katoki2.wav,audioB,,
,,,,,,,,Gwen Wojtkun,1098,2021-02-12_15h20.00.756,experiment,2020.1.3,MacIntel,60,,,,,,,,,,,,,,,,,postTest,,,,,,,,,,,,,,,,,,,,,,,,,,,,,,,,,,,,,,,,,,,,,,,,,,,,,,,f,0.456805,0,11,11,11,1,postTest/93_pakopa3.wav,postTest/93_pakopa3.wav,postTest/93_pakopa1.wav,audioA,,
,,,,,,,,Gwen Wojtkun,1098,2021-02-12_15h20.00.756,experiment,2020.1.3,MacIntel,60,,,,,,,,,,,,,,,,,,,,,,,,,,,,,,,,,,,,,,,,,,,,,,,,,,,,,,,,,,,,,,,,,,,,,,,,,,,,,,,,,,,space,2.331455
