skipTrain1Type.keys,skipTrain1Type.rt,train1Words.thisRepN,train1Words.thisTrialN,train1Words.thisN,train1Words.thisIndex,train1Words.ran,audio,imageLoc,participant,ID Number,date,expName,psychopyVersion,OS,frameRate,train1QuestAdvance.keys,train1QuestAdvance.rt,break_loop.thisRepN,break_loop.thisTrialN,break_loop.thisN,break_loop.thisIndex,break_loop.ran,train1Response.keys,train1Response.rt,train1Questions.thisRepN,train1Questions.thisTrialN,train1Questions.thisN,train1Questions.thisIndex,train1Questions.ran,audioTrue,imageTrue,currentPhase,imageFalse,truePos,falsePos,trial1phases.thisRepN,trial1phases.thisTrialN,trial1phases.thisN,trial1phases.thisIndex,trial1phases.ran,condFiles,testFiles,alltrain1.thisRepN,alltrain1.thisTrialN,alltrain1.thisN,alltrain1.thisIndex,alltrain1.ran,condFile,numWords,skipTest1Instr.keys,skipTest1Instr.rt,key_resp.keys,key_resp.rt,test1Response.keys,test1Response.rt,test1Loop.thisRepN,test1Loop.thisTrialN,test1Loop.thisN,test1Loop.thisIndex,test1Loop.ran,firstAudio,secondAudio,whichAudio,feedback,skipTest2Instr.keys,skipTest2Instr.rt,key_resp_2.keys,key_resp_2.rt,test2Response.keys,test2Response.rt,test2Loop.thisRepN,test2Loop.thisTrialN,test2Loop.thisN,test2Loop.thisIndex,test2Loop.ran,skipTest3Instr.keys,skipTest3Instr.rt,test3Response.keys,test3Response.rt,test3Loop.thisRepN,test3Loop.thisTrialN,test3Loop.thisN,test3Loop.thisIndex,test3Loop.ran,skipPostTestInstr.keys,skipPostTestInstr.rt,postTestResponse.keys,postTestResponse.rt,postTestLoop.thisRepN,postTestLoop.thisTrialN,postTestLoop.thisN,postTestLoop.thisIndex,postTestLoop.ran,audioA,audioX,audioB,correctLabel,quit.keys,quit.rt
j,7.953655,0,0,0,0,1,trainingaudio/06_titoka3.wav,pngimages/06_tent.png,Irene Bradley,1082,2021-02-04_09h49.58.048,experiment,2020.1.3,Win32,60,,,,,,,,,,,,,,,,,,,,,,,,,,,,,,,,,,,,,,,,,,,,,,,,,,,,,,,,,,,,,,,,,,,,,,,,,,,,,,,,,,,,
,,,,,,,,,Irene Bradley,1082,2021-02-04_09h49.58.048,experiment,2020.1.3,Win32,60,k,9.063665,0,0,0,0,1,,,,,,,,,,,,,,,,,,,,,,,,,,,,,,,,,,,,,,,,,,,,,,,,,,,,,,,,,,,,,,,,,,,,,,,,,,,,,
,,,,,,,,,Irene Bradley,1082,2021-02-04_09h49.58.048,experiment,2020.1.3,Win32,60,,,,,,,,f,2.437415,0,0,0,0,1,trainingaudio/19_papipi1.wav,pngimages/19_burger.png,train1P1,pngimages/06_tent.png,-0.5,0.5,,,,,,,,,,,,,,,,,,,,,,,,,,,,,,,,,,,,,,,,,,,,,,,,,,,,,,,,,,,,,,,,
,,,,,,,,,Irene Bradley,1082,2021-02-04_09h49.58.048,experiment,2020.1.3,Win32,60,,,,,,,,,,,,,,,,,,,,,0,0,0,0,1,aoiConditions/train1P1Block1.xlsx,aoiConditions/train1P1Block1Test.xlsx,,,,,,,,,,,,,,,,,,,,,,,,,,,,,,,,,,,,,,,,,,,,,,,,,,,,,,,,,
,,0,0,0,0,1,trainingaudio/23_patoko1.wav,pngimages/23_lemon.png,Irene Bradley,1082,2021-02-04_09h49.58.048,experiment,2020.1.3,Win32,60,,,,,,,,,,,,,,,,,,,,,,,,,,,,,,,,,,,,,,,,,,,,,,,,,,,,,,,,,,,,,,,,,,,,,,,,,,,,,,,,,,,,
,,,,,,,,,Irene Bradley,1082,2021-02-04_09h49.58.048,experiment,2020.1.3,Win32,60,,,0,0,0,0,1,,,,,,,,,,,,,,,,,,,,,,,,,,,,,,,,,,,,,,,,,,,,,,,,,,,,,,,,,,,,,,,,,,,,,,,,,,,,,
,,,,,,,,,Irene Bradley,1082,2021-02-04_09h49.58.048,experiment,2020.1.3,Win32,60,,,,,,,,j,2.88405,0,0,0,0,1,trainingaudio/23_patoko1.wav,pngimages/23_lemon.png,train1P1,pngimages/22_egg.png,0.5,-0.5,,,,,,,,,,,,,,,,,,,,,,,,,,,,,,,,,,,,,,,,,,,,,,,,,,,,,,,,,,,,,,,,
,,,,,,,,,Irene Bradley,1082,2021-02-04_09h49.58.048,experiment,2020.1.3,Win32,60,,,,,,,,,,,,,,,,,,,,,0,1,1,1,1,aoiConditions/train1P1Block2.xlsx,aoiConditions/train1P1Block2Test.xlsx,,,,,,,,,,,,,,,,,,,,,,,,,,,,,,,,,,,,,,,,,,,,,,,,,,,,,,,,,
,,0,0,0,0,1,trainingaudio/25_tapapi1.wav,pngimages/25_apple.png,Irene Bradley,1082,2021-02-04_09h49.58.048,experiment,2020.1.3,Win32,60,,,,,,,,,,,,,,,,,,,,,,,,,,,,,,,,,,,,,,,,,,,,,,,,,,,,,,,,,,,,,,,,,,,,,,,,,,,,,,,,,,,,
,,,,,,,,,Irene Bradley,1082,2021-02-04_09h49.58.048,experiment,2020.1.3,Win32,60,,,0,0,0,0,1,,,,,,,,,,,,,,,,,,,,,,,,,,,,,,,,,,,,,,,,,,,,,,,,,,,,,,,,,,,,,,,,,,,,,,,,,,,,,
,,,,,,,,,Irene Bradley,1082,2021-02-04_09h49.58.048,experiment,2020.1.3,Win32,60,,,,,,,,j,0.67357,0,0,0,0,1,trainingaudio/26_kapako1.wav,pngimages/26_pineapple.png,train1P1,pngimages/25_apple.png,0.5,-0.5,,,,,,,,,,,,,,,,,,,,,,,,,,,,,,,,,,,,,,,,,,,,,,,,,,,,,,,,,,,,,,,,
,,,,,,,,,Irene Bradley,1082,2021-02-04_09h49.58.048,experiment,2020.1.3,Win32,60,,,,,,,,,,,,,,,,,,,,,0,2,2,2,1,aoiConditions/train1P1Block3.xlsx,aoiConditions/train1P1Block3Test.xlsx,,,,,,,,,,,,,,,,,,,,,,,,,,,,,,,,,,,,,,,,,,,,,,,,,,,,,,,,,
,,0,0,0,0,1,trainingaudio/17_kotako2.wav,pngimages/17_cracker.png,Irene Bradley,1082,2021-02-04_09h49.58.048,experiment,2020.1.3,Win32,60,,,,,,,,,,,,,,,,,,,,,,,,,,,,,,,,,,,,,,,,,,,,,,,,,,,,,,,,,,,,,,,,,,,,,,,,,,,,,,,,,,,,
,,,,,,,,,Irene Bradley,1082,2021-02-04_09h49.58.048,experiment,2020.1.3,Win32,60,,,0,0,0,0,1,,,,,,,,,,,,,,,,,,,,,,,,,,,,,,,,,,,,,,,,,,,,,,,,,,,,,,,,,,,,,,,,,,,,,,,,,,,,,
,,,,,,,,,Irene Bradley,1082,2021-02-04_09h49.58.048,experiment,2020.1.3,Win32,60,,,,,,,,j,0.64684,0,0,0,0,1,trainingaudio/18_popata2.wav,pngimages/18_donut.png,train1P1,pngimages/17_cracker.png,0.5,-0.5,,,,,,,,,,,,,,,,,,,,,,,,,,,,,,,,,,,,,,,,,,,,,,,,,,,,,,,,,,,,,,,,
,,,,,,,,,Irene Bradley,1082,2021-02-04_09h49.58.048,experiment,2020.1.3,Win32,60,,,,,,,,,,,,,,,,,,,,,0,3,3,3,1,aoiConditions/train1P1Block4.xlsx,aoiConditions/train1P1Block4Test.xlsx,,,,,,,,,,,,,,,,,,,,,,,,,,,,,,,,,,,,,,,,,,,,,,,,,,,,,,,,,
,,0,0,0,0,1,trainingaudio/09_tipata2.wav,pngimages/09_plane.png,Irene Bradley,1082,2021-02-04_09h49.58.048,experiment,2020.1.3,Win32,60,,,,,,,,,,,,,,,,,,,,,,,,,,,,,,,,,,,,,,,,,,,,,,,,,,,,,,,,,,,,,,,,,,,,,,,,,,,,,,,,,,,,
,,,,,,,,,Irene Bradley,1082,2021-02-04_09h49.58.048,experiment,2020.1.3,Win32,60,,,0,0,0,0,1,,,,,,,,,,,,,,,,,,,,,,,,,,,,,,,,,,,,,,,,,,,,,,,,,,,,,,,,,,,,,,,,,,,,,,,,,,,,,
,,,,,,,,,Irene Bradley,1082,2021-02-04_09h49.58.048,experiment,2020.1.3,Win32,60,,,,,,,,j,0.90933,0,0,0,0,1,trainingaudio/24_takopa1.wav,pngimages/24_banana.png,train1P1,pngimages/09_plane.png,0.5,-0.5,,,,,,,,,,,,,,,,,,,,,,,,,,,,,,,,,,,,,,,,,,,,,,,,,,,,,,,,,,,,,,,,
,,,,,,,,,Irene Bradley,1082,2021-02-04_09h49.58.048,experiment,2020.1.3,Win32,60,,,,,,,,,,,,,,,,,,,,,0,4,4,4,1,aoiConditions/train1P1Block5.xlsx,aoiConditions/train1P1Block5Test.xlsx,,,,,,,,,,,,,,,,,,,,,,,,,,,,,,,,,,,,,,,,,,,,,,,,,,,,,,,,,
,,0,0,0,0,1,trainingaudio/08_tipako2.wav,pngimages/08_bell.png,Irene Bradley,1082,2021-02-04_09h49.58.048,experiment,2020.1.3,Win32,60,,,,,,,,,,,,,,,,,,,,,,,,,,,,,,,,,,,,,,,,,,,,,,,,,,,,,,,,,,,,,,,,,,,,,,,,,,,,,,,,,,,,
,,,,,,,,,Irene Bradley,1082,2021-02-04_09h49.58.048,experiment,2020.1.3,Win32,60,,,0,0,0,0,1,,,,,,,,,,,,,,,,,,,,,,,,,,,,,,,,,,,,,,,,,,,,,,,,,,,,,,,,,,,,,,,,,,,,,,,,,,,,,
,,,,,,,,,Irene Bradley,1082,2021-02-04_09h49.58.048,experiment,2020.1.3,Win32,60,,,,,,,,f,0.776935,0,0,0,0,1,trainingaudio/08_tipako2.wav,pngimages/08_bell.png,train1P1,pngimages/03_box.png,-0.5,0.5,,,,,,,,,,,,,,,,,,,,,,,,,,,,,,,,,,,,,,,,,,,,,,,,,,,,,,,,,,,,,,,,
,,,,,,,,,Irene Bradley,1082,2021-02-04_09h49.58.048,experiment,2020.1.3,Win32,60,,,,,,,,,,,,,,,,,,,,,0,5,5,5,1,aoiConditions/train1P1Block6.xlsx,aoiConditions/train1P1Block6Test.xlsx,,,,,,,,,,,,,,,,,,,,,,,,,,,,,,,,,,,,,,,,,,,,,,,,,,,,,,,,,
,,0,0,0,0,1,trainingaudio/10_tokiti1.wav,pngimages/10_backpack.png,Irene Bradley,1082,2021-02-04_09h49.58.048,experiment,2020.1.3,Win32,60,,,,,,,,,,,,,,,,,,,,,,,,,,,,,,,,,,,,,,,,,,,,,,,,,,,,,,,,,,,,,,,,,,,,,,,,,,,,,,,,,,,,
,,,,,,,,,Irene Bradley,1082,2021-02-04_09h49.58.048,experiment,2020.1.3,Win32,60,,,0,0,0,0,1,,,,,,,,,,,,,,,,,,,,,,,,,,,,,,,,,,,,,,,,,,,,,,,,,,,,,,,,,,,,,,,,,,,,,,,,,,,,,
,,,,,,,,,Irene Bradley,1082,2021-02-04_09h49.58.048,experiment,2020.1.3,Win32,60,,,,,,,,j,0.43925,0,0,0,0,1,trainingaudio/13_kopopi1.wav,pngimages/13_toast.png,train1P1,pngimages/10_backpack.png,0.5,-0.5,,,,,,,,,,,,,,,,,,,,,,,,,,,,,,,,,,,,,,,,,,,,,,,,,,,,,,,,,,,,,,,,
,,,,,,,,,Irene Bradley,1082,2021-02-04_09h49.58.048,experiment,2020.1.3,Win32,60,,,,,,,,,,,,,,,,,,,,,0,6,6,6,1,aoiConditions/train1P1Block7.xlsx,aoiConditions/train1P1Block7Test.xlsx,,,,,,,,,,,,,,,,,,,,,,,,,,,,,,,,,,,,,,,,,,,,,,,,,,,,,,,,,
,,0,0,0,0,1,trainingaudio/04_kitoti2.wav,pngimages/04_ladder.png,Irene Bradley,1082,2021-02-04_09h49.58.048,experiment,2020.1.3,Win32,60,,,,,,,,,,,,,,,,,,,,,,,,,,,,,,,,,,,,,,,,,,,,,,,,,,,,,,,,,,,,,,,,,,,,,,,,,,,,,,,,,,,,
,,,,,,,,,Irene Bradley,1082,2021-02-04_09h49.58.048,experiment,2020.1.3,Win32,60,,,0,0,0,0,1,,,,,,,,,,,,,,,,,,,,,,,,,,,,,,,,,,,,,,,,,,,,,,,,,,,,,,,,,,,,,,,,,,,,,,,,,,,,,
,,,,,,,,,Irene Bradley,1082,2021-02-04_09h49.58.048,experiment,2020.1.3,Win32,60,,,,,,,,f,1.85371,0,0,0,0,1,trainingaudio/12_pokika3.wav,pngimages/12_pie.png,train1P1,pngimages/04_ladder.png,-0.5,0.5,,,,,,,,,,,,,,,,,,,,,,,,,,,,,,,,,,,,,,,,,,,,,,,,,,,,,,,,,,,,,,,,
,,,,,,,,,Irene Bradley,1082,2021-02-04_09h49.58.048,experiment,2020.1.3,Win32,60,,,,,,,,,,,,,,,,,,,,,0,7,7,7,1,aoiConditions/train1P1Block8.xlsx,aoiConditions/train1P1Block8Test.xlsx,,,,,,,,,,,,,,,,,,,,,,,,,,,,,,,,,,,,,,,,,,,,,,,,,,,,,,,,,
,,0,0,0,0,1,trainingaudio/07_pitapi2.wav,pngimages/07_suitcase.png,Irene Bradley,1082,2021-02-04_09h49.58.048,experiment,2020.1.3,Win32,60,,,,,,,,,,,,,,,,,,,,,,,,,,,,,,,,,,,,,,,,,,,,,,,,,,,,,,,,,,,,,,,,,,,,,,,,,,,,,,,,,,,,
,,,,,,,,,Irene Bradley,1082,2021-02-04_09h49.58.048,experiment,2020.1.3,Win32,60,,,0,0,0,0,1,,,,,,,,,,,,,,,,,,,,,,,,,,,,,,,,,,,,,,,,,,,,,,,,,,,,,,,,,,,,,,,,,,,,,,,,,,,,,
,,,,,,,,,Irene Bradley,1082,2021-02-04_09h49.58.048,experiment,2020.1.3,Win32,60,,,,,,,,f,0.53601,0,0,0,0,1,trainingaudio/02_pitito3.wav,pngimages/02_pallet.png,train1P1,pngimages/07_suitcase.png,-0.5,0.5,,,,,,,,,,,,,,,,,,,,,,,,,,,,,,,,,,,,,,,,,,,,,,,,,,,,,,,,,,,,,,,,
,,,,,,,,,Irene Bradley,1082,2021-02-04_09h49.58.048,experiment,2020.1.3,Win32,60,,,,,,,,,,,,,,,,,,,,,0,8,8,8,1,aoiConditions/train1P1Block9.xlsx,aoiConditions/train1P1Block9Test.xlsx,,,,,,,,,,,,,,,,,,,,,,,,,,,,,,,,,,,,,,,,,,,,,,,,,,,,,,,,,
,,0,0,0,0,1,trainingaudio/01_kitipi1.wav,pngimages/01_gift.png,Irene Bradley,1082,2021-02-04_09h49.58.048,experiment,2020.1.3,Win32,60,,,,,,,,,,,,,,,,,,,,,,,,,,,,,,,,,,,,,,,,,,,,,,,,,,,,,,,,,,,,,,,,,,,,,,,,,,,,,,,,,,,,
,,,,,,,,,Irene Bradley,1082,2021-02-04_09h49.58.048,experiment,2020.1.3,Win32,60,,,0,0,0,0,1,,,,,,,,,,,,,,,,,,,,,,,,,,,,,,,,,,,,,,,,,,,,,,,,,,,,,,,,,,,,,,,,,,,,,,,,,,,,,
,,,,,,,,,Irene Bradley,1082,2021-02-04_09h49.58.048,experiment,2020.1.3,Win32,60,,,,,,,,f,1.044985,0,0,0,0,1,trainingaudio/01_kitipi1.wav,pngimages/01_gift.png,train1P1,pngimages/21_cheese.png,-0.5,0.5,,,,,,,,,,,,,,,,,,,,,,,,,,,,,,,,,,,,,,,,,,,,,,,,,,,,,,,,,,,,,,,,
,,,,,,,,,Irene Bradley,1082,2021-02-04_09h49.58.048,experiment,2020.1.3,Win32,60,,,,,,,,,,,,,,,,,,,,,0,9,9,9,1,aoiConditions/train1P1Block10.xlsx,aoiConditions/train1P1Block10Test.xlsx,,,,,,,,,,,,,,,,,,,,,,,,,,,,,,,,,,,,,,,,,,,,,,,,,,,,,,,,,
,,0,0,0,0,1,trainingaudio/27_pakapa1.wav,pngimages/27_kiwi.png,Irene Bradley,1082,2021-02-04_09h49.58.048,experiment,2020.1.3,Win32,60,,,,,,,,,,,,,,,,,,,,,,,,,,,,,,,,,,,,,,,,,,,,,,,,,,,,,,,,,,,,,,,,,,,,,,,,,,,,,,,,,,,,
,,,,,,,,,Irene Bradley,1082,2021-02-04_09h49.58.048,experiment,2020.1.3,Win32,60,,,0,0,0,0,1,,,,,,,,,,,,,,,,,,,,,,,,,,,,,,,,,,,,,,,,,,,,,,,,,,,,,,,,,,,,,,,,,,,,,,,,,,,,,
,,,,,,,,,Irene Bradley,1082,2021-02-04_09h49.58.048,experiment,2020.1.3,Win32,60,,,,,,,,j,1.1427,0,0,0,0,1,trainingaudio/27_pakapa1.wav,pngimages/27_kiwi.png,train1P1,pngimages/15_barrel.png,0.5,-0.5,,,,,,,,,,,,,,,,,,,,,,,,,,,,,,,,,,,,,,,,,,,,,,,,,,,,,,,,,,,,,,,,
,,,,,,,,,Irene Bradley,1082,2021-02-04_09h49.58.048,experiment,2020.1.3,Win32,60,,,,,,,,,,,,,,,,,,,,,0,10,10,10,1,aoiConditions/train1P1Block11.xlsx,aoiConditions/train1P1Block11Test.xlsx,,,,,,,,,,,,,,,,,,,,,,,,,,,,,,,,,,,,,,,,,,,,,,,,,,,,,,,,,
,,0,0,0,0,1,trainingaudio/05_titopo2.wav,pngimages/05_megaphone.png,Irene Bradley,1082,2021-02-04_09h49.58.048,experiment,2020.1.3,Win32,60,,,,,,,,,,,,,,,,,,,,,,,,,,,,,,,,,,,,,,,,,,,,,,,,,,,,,,,,,,,,,,,,,,,,,,,,,,,,,,,,,,,,
,,,,,,,,,Irene Bradley,1082,2021-02-04_09h49.58.048,experiment,2020.1.3,Win32,60,,,0,0,0,0,1,,,,,,,,,,,,,,,,,,,,,,,,,,,,,,,,,,,,,,,,,,,,,,,,,,,,,,,,,,,,,,,,,,,,,,,,,,,,,
,,,,,,,,,Irene Bradley,1082,2021-02-04_09h49.58.048,experiment,2020.1.3,Win32,60,,,,,,,,j,1.628505,0,0,0,0,1,trainingaudio/16_kokapi2.wav,pngimages/16_icecream.png,train1P1,pngimages/05_megaphone.png,0.5,-0.5,,,,,,,,,,,,,,,,,,,,,,,,,,,,,,,,,,,,,,,,,,,,,,,,,,,,,,,,,,,,,,,,
,,,,,,,,,Irene Bradley,1082,2021-02-04_09h49.58.048,experiment,2020.1.3,Win32,60,,,,,,,,,,,,,,,,,,,,,0,11,11,11,1,aoiConditions/train1P1Block12.xlsx,aoiConditions/train1P1Block12Test.xlsx,,,,,,,,,,,,,,,,,,,,,,,,,,,,,,,,,,,,,,,,,,,,,,,,,,,,,,,,,
,,0,0,0,0,1,trainingaudio/11_tokiko1.wav,pngimages/11_compass.png,Irene Bradley,1082,2021-02-04_09h49.58.048,experiment,2020.1.3,Win32,60,,,,,,,,,,,,,,,,,,,,,,,,,,,,,,,,,,,,,,,,,,,,,,,,,,,,,,,,,,,,,,,,,,,,,,,,,,,,,,,,,,,,
,,,,,,,,,Irene Bradley,1082,2021-02-04_09h49.58.048,experiment,2020.1.3,Win32,60,,,0,0,0,0,1,,,,,,,,,,,,,,,,,,,,,,,,,,,,,,,,,,,,,,,,,,,,,,,,,,,,,,,,,,,,,,,,,,,,,,,,,,,,,
,,,,,,,,,Irene Bradley,1082,2021-02-04_09h49.58.048,experiment,2020.1.3,Win32,60,,,,,,,,j,1.29983,0,0,0,0,1,trainingaudio/20_tatito1.wav,pngimages/20_pizza.png,train1P1,pngimages/11_compass.png,0.5,-0.5,,,,,,,,,,,,,,,,,,,,,,,,,,,,,,,,,,,,,,,,,,,,,,,,,,,,,,,,,,,,,,,,
,,,,,,,,,Irene Bradley,1082,2021-02-04_09h49.58.048,experiment,2020.1.3,Win32,60,,,,,,,,,,,,,,,,,,,,,0,12,12,12,1,aoiConditions/train1P1Block13.xlsx,aoiConditions/train1P1Block13Test.xlsx,,,,,,,,,,,,,,,,,,,,,,,,,,,,,,,,,,,,,,,,,,,,,,,,,,,,,,,,,
,,0,0,0,0,1,trainingaudio/14_pokoto1.wav,pngimages/14_coffee.png,Irene Bradley,1082,2021-02-04_09h49.58.048,experiment,2020.1.3,Win32,60,,,,,,,,,,,,,,,,,,,,,,,,,,,,,,,,,,,,,,,,,,,,,,,,,,,,,,,,,,,,,,,,,,,,,,,,,,,,,,,,,,,,
,,,,,,,,,Irene Bradley,1082,2021-02-04_09h49.58.048,experiment,2020.1.3,Win32,60,,,0,0,0,0,1,,,,,,,,,,,,,,,,,,,,,,,,,,,,,,,,,,,,,,,,,,,,,,,,,,,,,,,,,,,,,,,,,,,,,,,,,,,,,
,,,,,,,,,Irene Bradley,1082,2021-02-04_09h49.58.048,experiment,2020.1.3,Win32,60,,,,,,,,j,0.912555,0,0,0,0,1,trainingaudio/14_pokoto1.wav,pngimages/14_coffee.png,train1P1,pngimages/94_house.png,0.5,-0.5,,,,,,,,,,,,,,,,,,,,,,,,,,,,,,,,,,,,,,,,,,,,,,,,,,,,,,,,,,,,,,,,
,,,,,,,,,Irene Bradley,1082,2021-02-04_09h49.58.048,experiment,2020.1.3,Win32,60,,,,,,,,,,,,,,,,,,,,,,,,,,,,0,0,0,0,1,aoiConditions/train1P1LoopCondition.xlsx,two,,,,,,,,,,,,,,,,,,,,,,,,,,,,,,,,,,,,,,,,,,,,,,,,,,
j,5.407785,0,0,0,0,1,trainingaudio/09_tipata2.wav,pngimages/09_plane.png,Irene Bradley,1082,2021-02-04_09h49.58.048,experiment,2020.1.3,Win32,60,,,,,,,,,,,,,,,,,,,,,,,,,,,,,,,,,,,,,,,,,,,,,,,,,,,,,,,,,,,,,,,,,,,,,,,,,,,,,,,,,,,,
,,0,1,1,1,1,trainingaudio/15_kopota3.wav,pngimages/15_barrel.png,Irene Bradley,1082,2021-02-04_09h49.58.048,experiment,2020.1.3,Win32,60,,,,,,,,,,,,,,,,,,,,,,,,,,,,,,,,,,,,,,,,,,,,,,,,,,,,,,,,,,,,,,,,,,,,,,,,,,,,,,,,,,,,
,,0,2,2,2,1,trainingaudio/14_pokoto1.wav,pngimages/14_coffee.png,Irene Bradley,1082,2021-02-04_09h49.58.048,experiment,2020.1.3,Win32,60,,,,,,,,,,,,,,,,,,,,,,,,,,,,,,,,,,,,,,,,,,,,,,,,,,,,,,,,,,,,,,,,,,,,,,,,,,,,,,,,,,,,
,,,,,,,,,Irene Bradley,1082,2021-02-04_09h49.58.048,experiment,2020.1.3,Win32,60,k,6.36499,0,0,0,0,1,,,,,,,,,,,,,,,,,,,,,,,,,,,,,,,,,,,,,,,,,,,,,,,,,,,,,,,,,,,,,,,,,,,,,,,,,,,,,
,,,,,,,,,Irene Bradley,1082,2021-02-04_09h49.58.048,experiment,2020.1.3,Win32,60,,,,,,,,f,1.75964,0,0,0,0,1,trainingaudio/09_tipata2.wav,pngimages/09_plane.png,train1P2,pngimages/19_burger.png,0.5,-0.5,,,,,,,,,,,,,,,,,,,,,,,,,,,,,,,,,,,,,,,,,,,,,,,,,,,,,,,,,,,,,,,,
,,,,,,,,,Irene Bradley,1082,2021-02-04_09h49.58.048,experiment,2020.1.3,Win32,60,,,,,,,,j,3.119145,0,1,1,1,1,trainingaudio/15_kopota3.wav,pngimages/15_barrel.png,train1P2,pngimages/14_coffee.png,-0.5,0.5,,,,,,,,,,,,,,,,,,,,,,,,,,,,,,,,,,,,,,,,,,,,,,,,,,,,,,,,,,,,,,,,
,,,,,,,,,Irene Bradley,1082,2021-02-04_09h49.58.048,experiment,2020.1.3,Win32,60,,,,,,,,,,,,,,,,,,,,,0,0,0,0,1,aoiConditions/train1P2Block1.xlsx,aoiConditions/train1P2Block1Test.xlsx,,,,,,,,,,,,,,,,,,,,,,,,,,,,,,,,,,,,,,,,,,,,,,,,,,,,,,,,,
,,0,0,0,0,1,trainingaudio/16_kokapi2.wav,pngimages/16_icecream.png,Irene Bradley,1082,2021-02-04_09h49.58.048,experiment,2020.1.3,Win32,60,,,,,,,,,,,,,,,,,,,,,,,,,,,,,,,,,,,,,,,,,,,,,,,,,,,,,,,,,,,,,,,,,,,,,,,,,,,,,,,,,,,,
,,0,1,1,1,1,trainingaudio/26_kapako1.wav,pngimages/26_pineapple.png,Irene Bradley,1082,2021-02-04_09h49.58.048,experiment,2020.1.3,Win32,60,,,,,,,,,,,,,,,,,,,,,,,,,,,,,,,,,,,,,,,,,,,,,,,,,,,,,,,,,,,,,,,,,,,,,,,,,,,,,,,,,,,,
,,0,2,2,2,1,trainingaudio/17_kotako2.wav,pngimages/17_cracker.png,Irene Bradley,1082,2021-02-04_09h49.58.048,experiment,2020.1.3,Win32,60,,,,,,,,,,,,,,,,,,,,,,,,,,,,,,,,,,,,,,,,,,,,,,,,,,,,,,,,,,,,,,,,,,,,,,,,,,,,,,,,,,,,
,,,,,,,,,Irene Bradley,1082,2021-02-04_09h49.58.048,experiment,2020.1.3,Win32,60,,,0,0,0,0,1,,,,,,,,,,,,,,,,,,,,,,,,,,,,,,,,,,,,,,,,,,,,,,,,,,,,,,,,,,,,,,,,,,,,,,,,,,,,,
,,,,,,,,,Irene Bradley,1082,2021-02-04_09h49.58.048,experiment,2020.1.3,Win32,60,,,,,,,,f,0.99155,0,0,0,0,1,trainingaudio/11_tokiko1.wav,pngimages/11_compass.png,train1P2,pngimages/26_pineapple.png,-0.5,0.5,,,,,,,,,,,,,,,,,,,,,,,,,,,,,,,,,,,,,,,,,,,,,,,,,,,,,,,,,,,,,,,,
,,,,,,,,,Irene Bradley,1082,2021-02-04_09h49.58.048,experiment,2020.1.3,Win32,60,,,,,,,,f,0.93321,0,1,1,1,1,trainingaudio/17_kotako2.wav,pngimages/17_cracker.png,train1P2,pngimages/16_icecream.png,-0.5,0.5,,,,,,,,,,,,,,,,,,,,,,,,,,,,,,,,,,,,,,,,,,,,,,,,,,,,,,,,,,,,,,,,
,,,,,,,,,Irene Bradley,1082,2021-02-04_09h49.58.048,experiment,2020.1.3,Win32,60,,,,,,,,,,,,,,,,,,,,,0,1,1,1,1,aoiConditions/train1P2Block2.xlsx,aoiConditions/train1P2Block2Test.xlsx,,,,,,,,,,,,,,,,,,,,,,,,,,,,,,,,,,,,,,,,,,,,,,,,,,,,,,,,,
,,0,0,0,0,1,trainingaudio/08_tipako2.wav,pngimages/08_bell.png,Irene Bradley,1082,2021-02-04_09h49.58.048,experiment,2020.1.3,Win32,60,,,,,,,,,,,,,,,,,,,,,,,,,,,,,,,,,,,,,,,,,,,,,,,,,,,,,,,,,,,,,,,,,,,,,,,,,,,,,,,,,,,,
,,0,1,1,1,1,trainingaudio/07_pitapi2.wav,pngimages/07_suitcase.png,Irene Bradley,1082,2021-02-04_09h49.58.048,experiment,2020.1.3,Win32,60,,,,,,,,,,,,,,,,,,,,,,,,,,,,,,,,,,,,,,,,,,,,,,,,,,,,,,,,,,,,,,,,,,,,,,,,,,,,,,,,,,,,
,,0,2,2,2,1,trainingaudio/03_kikita3.wav,pngimages/03_box.png,Irene Bradley,1082,2021-02-04_09h49.58.048,experiment,2020.1.3,Win32,60,,,,,,,,,,,,,,,,,,,,,,,,,,,,,,,,,,,,,,,,,,,,,,,,,,,,,,,,,,,,,,,,,,,,,,,,,,,,,,,,,,,,
,,,,,,,,,Irene Bradley,1082,2021-02-04_09h49.58.048,experiment,2020.1.3,Win32,60,,,0,0,0,0,1,,,,,,,,,,,,,,,,,,,,,,,,,,,,,,,,,,,,,,,,,,,,,,,,,,,,,,,,,,,,,,,,,,,,,,,,,,,,,
,,,,,,,,,Irene Bradley,1082,2021-02-04_09h49.58.048,experiment,2020.1.3,Win32,60,,,,,,,,j,2.32778,0,0,0,0,1,trainingaudio/07_pitapi2.wav,pngimages/07_suitcase.png,train1P2,pngimages/08_bell.png,0.5,-0.5,,,,,,,,,,,,,,,,,,,,,,,,,,,,,,,,,,,,,,,,,,,,,,,,,,,,,,,,,,,,,,,,
,,,,,,,,,Irene Bradley,1082,2021-02-04_09h49.58.048,experiment,2020.1.3,Win32,60,,,,,,,,j,1.274215,0,1,1,1,1,trainingaudio/03_kikita3.wav,pngimages/03_box.png,train1P2,pngimages/01_gift.png,-0.5,0.5,,,,,,,,,,,,,,,,,,,,,,,,,,,,,,,,,,,,,,,,,,,,,,,,,,,,,,,,,,,,,,,,
,,,,,,,,,Irene Bradley,1082,2021-02-04_09h49.58.048,experiment,2020.1.3,Win32,60,,,,,,,,,,,,,,,,,,,,,0,2,2,2,1,aoiConditions/train1P2Block3.xlsx,aoiConditions/train1P2Block3Test.xlsx,,,,,,,,,,,,,,,,,,,,,,,,,,,,,,,,,,,,,,,,,,,,,,,,,,,,,,,,,
,,0,0,0,0,1,trainingaudio/12_pokika3.wav,pngimages/12_pie.png,Irene Bradley,1082,2021-02-04_09h49.58.048,experiment,2020.1.3,Win32,60,,,,,,,,,,,,,,,,,,,,,,,,,,,,,,,,,,,,,,,,,,,,,,,,,,,,,,,,,,,,,,,,,,,,,,,,,,,,,,,,,,,,
,,0,1,1,1,1,trainingaudio/22_kakoki1.wav,pngimages/22_egg.png,Irene Bradley,1082,2021-02-04_09h49.58.048,experiment,2020.1.3,Win32,60,,,,,,,,,,,,,,,,,,,,,,,,,,,,,,,,,,,,,,,,,,,,,,,,,,,,,,,,,,,,,,,,,,,,,,,,,,,,,,,,,,,,
,,0,2,2,2,1,trainingaudio/04_kitoti2.wav,pngimages/04_ladder.png,Irene Bradley,1082,2021-02-04_09h49.58.048,experiment,2020.1.3,Win32,60,,,,,,,,,,,,,,,,,,,,,,,,,,,,,,,,,,,,,,,,,,,,,,,,,,,,,,,,,,,,,,,,,,,,,,,,,,,,,,,,,,,,
,,,,,,,,,Irene Bradley,1082,2021-02-04_09h49.58.048,experiment,2020.1.3,Win32,60,,,0,0,0,0,1,,,,,,,,,,,,,,,,,,,,,,,,,,,,,,,,,,,,,,,,,,,,,,,,,,,,,,,,,,,,,,,,,,,,,,,,,,,,,
,,,,,,,,,Irene Bradley,1082,2021-02-04_09h49.58.048,experiment,2020.1.3,Win32,60,,,,,,,,j,0.982905,0,0,0,0,1,trainingaudio/04_kitoti2.wav,pngimages/04_ladder.png,train1P2,pngimages/12_pie.png,0.5,-0.5,,,,,,,,,,,,,,,,,,,,,,,,,,,,,,,,,,,,,,,,,,,,,,,,,,,,,,,,,,,,,,,,
,,,,,,,,,Irene Bradley,1082,2021-02-04_09h49.58.048,experiment,2020.1.3,Win32,60,,,,,,,,f,4.90975,0,1,1,1,1,trainingaudio/22_kakoki1.wav,pngimages/22_egg.png,train1P2,pngimages/02_pallet.png,-0.5,0.5,,,,,,,,,,,,,,,,,,,,,,,,,,,,,,,,,,,,,,,,,,,,,,,,,,,,,,,,,,,,,,,,
,,,,,,,,,Irene Bradley,1082,2021-02-04_09h49.58.048,experiment,2020.1.3,Win32,60,,,,,,,,,,,,,,,,,,,,,0,3,3,3,1,aoiConditions/train1P2Block4.xlsx,aoiConditions/train1P2Block4Test.xlsx,,,,,,,,,,,,,,,,,,,,,,,,,,,,,,,,,,,,,,,,,,,,,,,,,,,,,,,,,
,,0,0,0,0,1,trainingaudio/23_patoko1.wav,pngimages/23_lemon.png,Irene Bradley,1082,2021-02-04_09h49.58.048,experiment,2020.1.3,Win32,60,,,,,,,,,,,,,,,,,,,,,,,,,,,,,,,,,,,,,,,,,,,,,,,,,,,,,,,,,,,,,,,,,,,,,,,,,,,,,,,,,,,,
,,0,1,1,1,1,trainingaudio/10_tokiti1.wav,pngimages/10_backpack.png,Irene Bradley,1082,2021-02-04_09h49.58.048,experiment,2020.1.3,Win32,60,,,,,,,,,,,,,,,,,,,,,,,,,,,,,,,,,,,,,,,,,,,,,,,,,,,,,,,,,,,,,,,,,,,,,,,,,,,,,,,,,,,,
,,0,2,2,2,1,trainingaudio/20_tatito1.wav,pngimages/20_pizza.png,Irene Bradley,1082,2021-02-04_09h49.58.048,experiment,2020.1.3,Win32,60,,,,,,,,,,,,,,,,,,,,,,,,,,,,,,,,,,,,,,,,,,,,,,,,,,,,,,,,,,,,,,,,,,,,,,,,,,,,,,,,,,,,
,,,,,,,,,Irene Bradley,1082,2021-02-04_09h49.58.048,experiment,2020.1.3,Win32,60,,,0,0,0,0,1,,,,,,,,,,,,,,,,,,,,,,,,,,,,,,,,,,,,,,,,,,,,,,,,,,,,,,,,,,,,,,,,,,,,,,,,,,,,,
,,,,,,,,,Irene Bradley,1082,2021-02-04_09h49.58.048,experiment,2020.1.3,Win32,60,,,,,,,,f,3.40313,0,0,0,0,1,trainingaudio/10_tokiti1.wav,pngimages/10_backpack.png,train1P2,pngimages/23_lemon.png,0.5,-0.5,,,,,,,,,,,,,,,,,,,,,,,,,,,,,,,,,,,,,,,,,,,,,,,,,,,,,,,,,,,,,,,,
,,,,,,,,,Irene Bradley,1082,2021-02-04_09h49.58.048,experiment,2020.1.3,Win32,60,,,,,,,,f,2.36832,0,1,1,1,1,trainingaudio/25_tapapi1.wav,pngimages/25_apple.png,train1P2,pngimages/20_pizza.png,-0.5,0.5,,,,,,,,,,,,,,,,,,,,,,,,,,,,,,,,,,,,,,,,,,,,,,,,,,,,,,,,,,,,,,,,
,,,,,,,,,Irene Bradley,1082,2021-02-04_09h49.58.048,experiment,2020.1.3,Win32,60,,,,,,,,,,,,,,,,,,,,,0,4,4,4,1,aoiConditions/train1P2Block5.xlsx,aoiConditions/train1P2Block5Test.xlsx,,,,,,,,,,,,,,,,,,,,,,,,,,,,,,,,,,,,,,,,,,,,,,,,,,,,,,,,,
,,0,0,0,0,1,trainingaudio/18_popata2.wav,pngimages/18_donut.png,Irene Bradley,1082,2021-02-04_09h49.58.048,experiment,2020.1.3,Win32,60,,,,,,,,,,,,,,,,,,,,,,,,,,,,,,,,,,,,,,,,,,,,,,,,,,,,,,,,,,,,,,,,,,,,,,,,,,,,,,,,,,,,
,,0,1,1,1,1,trainingaudio/06_titoka3.wav,pngimages/06_tent.png,Irene Bradley,1082,2021-02-04_09h49.58.048,experiment,2020.1.3,Win32,60,,,,,,,,,,,,,,,,,,,,,,,,,,,,,,,,,,,,,,,,,,,,,,,,,,,,,,,,,,,,,,,,,,,,,,,,,,,,,,,,,,,,
,,0,2,2,2,1,trainingaudio/21_papika1.wav,pngimages/21_cheese.png,Irene Bradley,1082,2021-02-04_09h49.58.048,experiment,2020.1.3,Win32,60,,,,,,,,,,,,,,,,,,,,,,,,,,,,,,,,,,,,,,,,,,,,,,,,,,,,,,,,,,,,,,,,,,,,,,,,,,,,,,,,,,,,
,,,,,,,,,Irene Bradley,1082,2021-02-04_09h49.58.048,experiment,2020.1.3,Win32,60,,,0,0,0,0,1,,,,,,,,,,,,,,,,,,,,,,,,,,,,,,,,,,,,,,,,,,,,,,,,,,,,,,,,,,,,,,,,,,,,,,,,,,,,,
,,,,,,,,,Irene Bradley,1082,2021-02-04_09h49.58.048,experiment,2020.1.3,Win32,60,,,,,,,,f,2.0197,0,0,0,0,1,trainingaudio/21_papika1.wav,pngimages/21_cheese.png,train1P2,pngimages/18_donut.png,-0.5,0.5,,,,,,,,,,,,,,,,,,,,,,,,,,,,,,,,,,,,,,,,,,,,,,,,,,,,,,,,,,,,,,,,
,,,,,,,,,Irene Bradley,1082,2021-02-04_09h49.58.048,experiment,2020.1.3,Win32,60,,,,,,,,f,1.484495,0,1,1,1,1,trainingaudio/06_titoka3.wav,pngimages/06_tent.png,train1P2,pngimages/27_kiwi.png,-0.5,0.5,,,,,,,,,,,,,,,,,,,,,,,,,,,,,,,,,,,,,,,,,,,,,,,,,,,,,,,,,,,,,,,,
,,,,,,,,,Irene Bradley,1082,2021-02-04_09h49.58.048,experiment,2020.1.3,Win32,60,,,,,,,,,,,,,,,,,,,,,0,5,5,5,1,aoiConditions/train1P2Block6.xlsx,aoiConditions/train1P2Block6Test.xlsx,,,,,,,,,,,,,,,,,,,,,,,,,,,,,,,,,,,,,,,,,,,,,,,,,,,,,,,,,
,,0,0,0,0,1,trainingaudio/24_takopa1.wav,pngimages/24_banana.png,Irene Bradley,1082,2021-02-04_09h49.58.048,experiment,2020.1.3,Win32,60,,,,,,,,,,,,,,,,,,,,,,,,,,,,,,,,,,,,,,,,,,,,,,,,,,,,,,,,,,,,,,,,,,,,,,,,,,,,,,,,,,,,
,,0,1,1,1,1,trainingaudio/13_kopopi1.wav,pngimages/13_toast.png,Irene Bradley,1082,2021-02-04_09h49.58.048,experiment,2020.1.3,Win32,60,,,,,,,,,,,,,,,,,,,,,,,,,,,,,,,,,,,,,,,,,,,,,,,,,,,,,,,,,,,,,,,,,,,,,,,,,,,,,,,,,,,,
,,0,2,2,2,1,trainingaudio/05_titopo2.wav,pngimages/05_megaphone.png,Irene Bradley,1082,2021-02-04_09h49.58.048,experiment,2020.1.3,Win32,60,,,,,,,,,,,,,,,,,,,,,,,,,,,,,,,,,,,,,,,,,,,,,,,,,,,,,,,,,,,,,,,,,,,,,,,,,,,,,,,,,,,,
,,,,,,,,,Irene Bradley,1082,2021-02-04_09h49.58.048,experiment,2020.1.3,Win32,60,,,0,0,0,0,1,,,,,,,,,,,,,,,,,,,,,,,,,,,,,,,,,,,,,,,,,,,,,,,,,,,,,,,,,,,,,,,,,,,,,,,,,,,,,
,,,,,,,,,Irene Bradley,1082,2021-02-04_09h49.58.048,experiment,2020.1.3,Win32,60,,,,,,,,j,0.910745,0,0,0,0,1,trainingaudio/94_kipipi1.wav,pngimages/94_house.png,train1P2,pngimages/24_banana.png,0.5,-0.5,,,,,,,,,,,,,,,,,,,,,,,,,,,,,,,,,,,,,,,,,,,,,,,,,,,,,,,,,,,,,,,,
,,,,,,,,,Irene Bradley,1082,2021-02-04_09h49.58.048,experiment,2020.1.3,Win32,60,,,,,,,,f,4.33604,0,1,1,1,1,trainingaudio/05_titopo2.wav,pngimages/05_megaphone.png,train1P2,pngimages/13_toast.png,-0.5,0.5,,,,,,,,,,,,,,,,,,,,,,,,,,,,,,,,,,,,,,,,,,,,,,,,,,,,,,,,,,,,,,,,
,,,,,,,,pngimages/04_ladder.png,Irene Bradley,1082,2021-02-04_09h49.58.048,experiment,2020.1.3,Win32,60,,,,,,,,,,,,,,,,,test1,,,,,,,,,,,,,,,,,,j,4.914165,h,9.311035,j,3.693405,0,0,0,0,1,trainingaudio/04_kitoti1.wav,trainingaudio/04_kitoti2.wav,2,trainingaudio/04_kitoti2.wav,,,,,,,,,,,,,,,,,,,,,,,,,,,,,,,,,,,
,,,,,,,,pngimages/12_pie.png,Irene Bradley,1082,2021-02-04_09h49.58.048,experiment,2020.1.3,Win32,60,,,,,,,,,,,,,,,,,test1,,,,,,,,,,,,,,,,,,,,,,f,0.797695,0,1,1,1,1,trainingaudio/12_pokika1.wav,trainingaudio/12_pokika3.wav,2,trainingaudio/12_pokika3.wav,,,,,,,,,,,,,,,,,,,,,,,,,,,,,,,,,,,
,,,,,,,,pngimages/02_pallet.png,Irene Bradley,1082,2021-02-04_09h49.58.048,experiment,2020.1.3,Win32,60,,,,,,,,,,,,,,,,,test1,,,,,,,,,,,,,,,,,,,,,,f,1.541145,0,2,2,2,1,trainingaudio/02_pitito3.wav,trainingaudio/02_pitito1.wav,1,trainingaudio/02_pitito3.wav,,,,,,,,,,,,,,,,,,,,,,,,,,,,,,,,,,,
,,,,,,,,pngimages/20_pizza.png,Irene Bradley,1082,2021-02-04_09h49.58.048,experiment,2020.1.3,Win32,60,,,,,,,,,,,,,,,,,test1,,,,,,,,,,,,,,,,,,,,,,j,3.69649,0,3,3,3,1,trainingaudio/20_tatito2.wav,trainingaudio/20_tatito1.wav,2,trainingaudio/20_tatito1.wav,,,,,,,,,,,,,,,,,,,,,,,,,,,,,,,,,,,
,,,,,,,,pngimages/24_banana.png,Irene Bradley,1082,2021-02-04_09h49.58.048,experiment,2020.1.3,Win32,60,,,,,,,,,,,,,,,,,test1,,,,,,,,,,,,,,,,,,,,,,j,3.4648,0,4,4,4,1,trainingaudio/24_takopa2.wav,trainingaudio/24_takopa1.wav,2,trainingaudio/24_takopa1.wav,,,,,,,,,,,,,,,,,,,,,,,,,,,,,,,,,,,
,,,,,,,,pngimages/09_plane.png,Irene Bradley,1082,2021-02-04_09h49.58.048,experiment,2020.1.3,Win32,60,,,,,,,,,,,,,,,,,test1,,,,,,,,,,,,,,,,,,,,,,j,3.13531,0,5,5,5,1,trainingaudio/09_tipata1.wav,trainingaudio/09_tipata2.wav,2,trainingaudio/09_tipata2.wav,,,,,,,,,,,,,,,,,,,,,,,,,,,,,,,,,,,
,,,,,,,,pngimages/14_coffee.png,Irene Bradley,1082,2021-02-04_09h49.58.048,experiment,2020.1.3,Win32,60,,,,,,,,,,,,,,,,,test1,,,,,,,,,,,,,,,,,,,,,,j,1.034335,0,6,6,6,1,trainingaudio/14_pokoto3.wav,trainingaudio/14_pokoto1.wav,2,trainingaudio/14_pokoto1.wav,,,,,,,,,,,,,,,,,,,,,,,,,,,,,,,,,,,
,,,,,,,,pngimages/15_barrel.png,Irene Bradley,1082,2021-02-04_09h49.58.048,experiment,2020.1.3,Win32,60,,,,,,,,,,,,,,,,,test1,,,,,,,,,,,,,,,,,,,,,,f,3.302265,0,7,7,7,1,trainingaudio/15_kopota3.wav,trainingaudio/15_kopota2.wav,1,trainingaudio/15_kopota3.wav,,,,,,,,,,,,,,,,,,,,,,,,,,,,,,,,,,,
,,,,,,,,pngimages/27_kiwi.png,Irene Bradley,1082,2021-02-04_09h49.58.048,experiment,2020.1.3,Win32,60,,,,,,,,,,,,,,,,,test1,,,,,,,,,,,,,,,,,,,,,,j,1.847865,0,8,8,8,1,trainingaudio/27_pakapa3.wav,trainingaudio/27_pakapa1.wav,2,trainingaudio/27_pakapa1.wav,,,,,,,,,,,,,,,,,,,,,,,,,,,,,,,,,,,
,,,,,,,,pngimages/22_egg.png,Irene Bradley,1082,2021-02-04_09h49.58.048,experiment,2020.1.3,Win32,60,,,,,,,,,,,,,,,,,test1,,,,,,,,,,,,,,,,,,,,,,f,1.997515,0,9,9,9,1,trainingaudio/22_kakoki1.wav,trainingaudio/22_kakoki3.wav,1,trainingaudio/22_kakoki1.wav,,,,,,,,,,,,,,,,,,,,,,,,,,,,,,,,,,,
,,,,,,,,pngimages/18_donut.png,Irene Bradley,1082,2021-02-04_09h49.58.048,experiment,2020.1.3,Win32,60,,,,,,,,,,,,,,,,,test1,,,,,,,,,,,,,,,,,,,,,,f,2.487345,0,10,10,10,1,trainingaudio/18_popata2.wav,trainingaudio/18_popata3.wav,1,trainingaudio/18_popata2.wav,,,,,,,,,,,,,,,,,,,,,,,,,,,,,,,,,,,
,,,,,,,,pngimages/13_toast.png,Irene Bradley,1082,2021-02-04_09h49.58.048,experiment,2020.1.3,Win32,60,,,,,,,,,,,,,,,,,test1,,,,,,,,,,,,,,,,,,,,,,j,2.913245,0,11,11,11,1,trainingaudio/13_kopopi1.wav,trainingaudio/13_kopopi2.wav,1,trainingaudio/13_kopopi1.wav,,,,,,,,,,,,,,,,,,,,,,,,,,,,,,,,,,,
,,,,,,,,pngimages/06_tent.png,Irene Bradley,1082,2021-02-04_09h49.58.048,experiment,2020.1.3,Win32,60,,,,,,,,,,,,,,,,,test1,,,,,,,,,,,,,,,,,,,,,,f,0.89671,0,12,12,12,1,trainingaudio/06_titoka3.wav,trainingaudio/06_titoka1.wav,1,trainingaudio/06_titoka3.wav,,,,,,,,,,,,,,,,,,,,,,,,,,,,,,,,,,,
,,,,,,,,pngimages/11_compass.png,Irene Bradley,1082,2021-02-04_09h49.58.048,experiment,2020.1.3,Win32,60,,,,,,,,,,,,,,,,,test1,,,,,,,,,,,,,,,,,,,,,,j,1.04697,0,13,13,13,1,trainingaudio/11_tokiko3.wav,trainingaudio/11_tokiko1.wav,2,trainingaudio/11_tokiko1.wav,,,,,,,,,,,,,,,,,,,,,,,,,,,,,,,,,,,
,,,,,,,,pngimages/05_megaphone.png,Irene Bradley,1082,2021-02-04_09h49.58.048,experiment,2020.1.3,Win32,60,,,,,,,,,,,,,,,,,test1,,,,,,,,,,,,,,,,,,,,,,f,1.940335,0,14,14,14,1,trainingaudio/05_titopo2.wav,trainingaudio/05_titopo3.wav,1,trainingaudio/05_titopo2.wav,,,,,,,,,,,,,,,,,,,,,,,,,,,,,,,,,,,
,,,,,,,,pngimages/94_house.png,Irene Bradley,1082,2021-02-04_09h49.58.048,experiment,2020.1.3,Win32,60,,,,,,,,,,,,,,,,,test1,,,,,,,,,,,,,,,,,,,,,,f,0.75789,0,15,15,15,1,trainingaudio/94_kipipi1.wav,trainingaudio/94_kipipi2.wav,1,trainingaudio/94_kipipi1.wav,,,,,,,,,,,,,,,,,,,,,,,,,,,,,,,,,,,
,,,,,,,,pngimages/07_suitcase.png,Irene Bradley,1082,2021-02-04_09h49.58.048,experiment,2020.1.3,Win32,60,,,,,,,,,,,,,,,,,test1,,,,,,,,,,,,,,,,,,,,,,f,0.954525,0,16,16,16,1,trainingaudio/07_pitapi2.wav,trainingaudio/07_pitapi3.wav,1,trainingaudio/07_pitapi2.wav,,,,,,,,,,,,,,,,,,,,,,,,,,,,,,,,,,,
,,,,,,,,pngimages/25_apple.png,Irene Bradley,1082,2021-02-04_09h49.58.048,experiment,2020.1.3,Win32,60,,,,,,,,,,,,,,,,,test1,,,,,,,,,,,,,,,,,,,,,,f,1.956395,0,17,17,17,1,trainingaudio/25_tapapi2.wav,trainingaudio/25_tapapi1.wav,2,trainingaudio/25_tapapi1.wav,,,,,,,,,,,,,,,,,,,,,,,,,,,,,,,,,,,
,,,,,,,,pngimages/03_box.png,Irene Bradley,1082,2021-02-04_09h49.58.048,experiment,2020.1.3,Win32,60,,,,,,,,,,,,,,,,,test1,,,,,,,,,,,,,,,,,,,,,,j,0.850905,0,18,18,18,1,trainingaudio/03_kikita2.wav,trainingaudio/03_kikita3.wav,2,trainingaudio/03_kikita3.wav,,,,,,,,,,,,,,,,,,,,,,,,,,,,,,,,,,,
,,,,,,,,pngimages/01_gift.png,Irene Bradley,1082,2021-02-04_09h49.58.048,experiment,2020.1.3,Win32,60,,,,,,,,,,,,,,,,,test1,,,,,,,,,,,,,,,,,,,,,,j,0.9892,0,19,19,19,1,trainingaudio/01_kitipi2.wav,trainingaudio/01_kitipi1.wav,2,trainingaudio/01_kitipi1.wav,,,,,,,,,,,,,,,,,,,,,,,,,,,,,,,,,,,
,,,,,,,,pngimages/26_pineapple.png,Irene Bradley,1082,2021-02-04_09h49.58.048,experiment,2020.1.3,Win32,60,,,,,,,,,,,,,,,,,test1,,,,,,,,,,,,,,,,,,,,,,j,1.268725,0,20,20,20,1,trainingaudio/26_kapako2.wav,trainingaudio/26_kapako1.wav,2,trainingaudio/26_kapako1.wav,,,,,,,,,,,,,,,,,,,,,,,,,,,,,,,,,,,
,,,,,,,,pngimages/10_backpack.png,Irene Bradley,1082,2021-02-04_09h49.58.048,experiment,2020.1.3,Win32,60,,,,,,,,,,,,,,,,,test1,,,,,,,,,,,,,,,,,,,,,,j,1.00698,0,21,21,21,1,trainingaudio/10_tokiti3.wav,trainingaudio/10_tokiti1.wav,2,trainingaudio/10_tokiti1.wav,,,,,,,,,,,,,,,,,,,,,,,,,,,,,,,,,,,
,,,,,,,,pngimages/21_cheese.png,Irene Bradley,1082,2021-02-04_09h49.58.048,experiment,2020.1.3,Win32,60,,,,,,,,,,,,,,,,,test1,,,,,,,,,,,,,,,,,,,,,,j,1.96437,0,22,22,22,1,trainingaudio/21_papika1.wav,trainingaudio/21_papika3.wav,1,trainingaudio/21_papika1.wav,,,,,,,,,,,,,,,,,,,,,,,,,,,,,,,,,,,
,,,,,,,,pngimages/19_burger.png,Irene Bradley,1082,2021-02-04_09h49.58.048,experiment,2020.1.3,Win32,60,,,,,,,,,,,,,,,,,test1,,,,,,,,,,,,,,,,,,,,,,f,0.75661,0,23,23,23,1,trainingaudio/19_papipi1.wav,trainingaudio/19_papipi3.wav,1,trainingaudio/19_papipi1.wav,,,,,,,,,,,,,,,,,,,,,,,,,,,,,,,,,,,
,,,,,,,,pngimages/17_cracker.png,Irene Bradley,1082,2021-02-04_09h49.58.048,experiment,2020.1.3,Win32,60,,,,,,,,,,,,,,,,,test1,,,,,,,,,,,,,,,,,,,,,,f,1.275585,0,24,24,24,1,trainingaudio/17_kotako1.wav,trainingaudio/17_kotako2.wav,2,trainingaudio/17_kotako2.wav,,,,,,,,,,,,,,,,,,,,,,,,,,,,,,,,,,,
,,,,,,,,pngimages/16_icecream.png,Irene Bradley,1082,2021-02-04_09h49.58.048,experiment,2020.1.3,Win32,60,,,,,,,,,,,,,,,,,test1,,,,,,,,,,,,,,,,,,,,,,f,2.33555,0,25,25,25,1,trainingaudio/16_kokapi1.wav,trainingaudio/16_kokapi2.wav,2,trainingaudio/16_kokapi2.wav,,,,,,,,,,,,,,,,,,,,,,,,,,,,,,,,,,,
,,,,,,,,pngimages/23_lemon.png,Irene Bradley,1082,2021-02-04_09h49.58.048,experiment,2020.1.3,Win32,60,,,,,,,,,,,,,,,,,test1,,,,,,,,,,,,,,,,,,,,,,j,1.30236,0,26,26,26,1,trainingaudio/23_patoko2.wav,trainingaudio/23_patoko1.wav,2,trainingaudio/23_patoko1.wav,,,,,,,,,,,,,,,,,,,,,,,,,,,,,,,,,,,
,,,,,,,,pngimages/08_bell.png,Irene Bradley,1082,2021-02-04_09h49.58.048,experiment,2020.1.3,Win32,60,,,,,,,,,,,,,,,,,test1,,,,,,,,,,,,,,,,,,,,,,j,1.651285,0,27,27,27,1,trainingaudio/08_tipako2.wav,trainingaudio/08_tipako3.wav,1,trainingaudio/08_tipako2.wav,,,,,,,,,,,,,,,,,,,,,,,,,,,,,,,,,,,
,,,,,,,,pngimages/27_kiwi.png,Irene Bradley,1082,2021-02-04_09h49.58.048,experiment,2020.1.3,Win32,60,,,,,,,,,,,,,,,,,test1,,,,,,,,,,,,,,,,,,,,,,j,0.804305,0,28,28,28,1,trainingaudio/27_pakapa2.wav,trainingaudio/27_pakapa1.wav,2,trainingaudio/27_pakapa1.wav,,,,,,,,,,,,,,,,,,,,,,,,,,,,,,,,,,,
,,,,,,,,pngimages/20_pizza.png,Irene Bradley,1082,2021-02-04_09h49.58.048,experiment,2020.1.3,Win32,60,,,,,,,,,,,,,,,,,test1,,,,,,,,,,,,,,,,,,,,,,j,2.643255,0,29,29,29,1,trainingaudio/20_tatito3.wav,trainingaudio/20_tatito1.wav,2,trainingaudio/20_tatito1.wav,,,,,,,,,,,,,,,,,,,,,,,,,,,,,,,,,,,
,,,,,,,,pngimages/12_pie.png,Irene Bradley,1082,2021-02-04_09h49.58.048,experiment,2020.1.3,Win32,60,,,,,,,,,,,,,,,,,test1,,,,,,,,,,,,,,,,,,,,,,j,1.61898,0,30,30,30,1,trainingaudio/12_pokika3.wav,trainingaudio/12_pokika1.wav,1,trainingaudio/12_pokika3.wav,,,,,,,,,,,,,,,,,,,,,,,,,,,,,,,,,,,
,,,,,,,,pngimages/01_gift.png,Irene Bradley,1082,2021-02-04_09h49.58.048,experiment,2020.1.3,Win32,60,,,,,,,,,,,,,,,,,test1,,,,,,,,,,,,,,,,,,,,,,j,1.662805,0,31,31,31,1,trainingaudio/01_kitipi3.wav,trainingaudio/01_kitipi1.wav,2,trainingaudio/01_kitipi1.wav,,,,,,,,,,,,,,,,,,,,,,,,,,,,,,,,,,,
,,,,,,,,pngimages/09_plane.png,Irene Bradley,1082,2021-02-04_09h49.58.048,experiment,2020.1.3,Win32,60,,,,,,,,,,,,,,,,,test1,,,,,,,,,,,,,,,,,,,,,,f,1.345905,0,32,32,32,1,trainingaudio/09_tipata3.wav,trainingaudio/09_tipata2.wav,2,trainingaudio/09_tipata2.wav,,,,,,,,,,,,,,,,,,,,,,,,,,,,,,,,,,,
,,,,,,,,pngimages/25_apple.png,Irene Bradley,1082,2021-02-04_09h49.58.048,experiment,2020.1.3,Win32,60,,,,,,,,,,,,,,,,,test1,,,,,,,,,,,,,,,,,,,,,,f,0.674995,0,33,33,33,1,trainingaudio/25_tapapi3.wav,trainingaudio/25_tapapi1.wav,2,trainingaudio/25_tapapi1.wav,,,,,,,,,,,,,,,,,,,,,,,,,,,,,,,,,,,
,,,,,,,,pngimages/02_pallet.png,Irene Bradley,1082,2021-02-04_09h49.58.048,experiment,2020.1.3,Win32,60,,,,,,,,,,,,,,,,,test1,,,,,,,,,,,,,,,,,,,,,,f,0.95913,0,34,34,34,1,trainingaudio/02_pitito3.wav,trainingaudio/02_pitito2.wav,1,trainingaudio/02_pitito3.wav,,,,,,,,,,,,,,,,,,,,,,,,,,,,,,,,,,,
,,,,,,,,pngimages/08_bell.png,Irene Bradley,1082,2021-02-04_09h49.58.048,experiment,2020.1.3,Win32,60,,,,,,,,,,,,,,,,,test1,,,,,,,,,,,,,,,,,,,,,,f,1.48448,0,35,35,35,1,trainingaudio/08_tipako2.wav,trainingaudio/08_tipako1.wav,1,trainingaudio/08_tipako2.wav,,,,,,,,,,,,,,,,,,,,,,,,,,,,,,,,,,,
,,,,,,,,pngimages/15_barrel.png,Irene Bradley,1082,2021-02-04_09h49.58.048,experiment,2020.1.3,Win32,60,,,,,,,,,,,,,,,,,test1,,,,,,,,,,,,,,,,,,,,,,j,0.9016,0,36,36,36,1,trainingaudio/15_kopota1.wav,trainingaudio/15_kopota3.wav,2,trainingaudio/15_kopota3.wav,,,,,,,,,,,,,,,,,,,,,,,,,,,,,,,,,,,
,,,,,,,,pngimages/24_banana.png,Irene Bradley,1082,2021-02-04_09h49.58.048,experiment,2020.1.3,Win32,60,,,,,,,,,,,,,,,,,test1,,,,,,,,,,,,,,,,,,,,,,j,0.964355,0,37,37,37,1,trainingaudio/24_takopa3.wav,trainingaudio/24_takopa1.wav,2,trainingaudio/24_takopa1.wav,,,,,,,,,,,,,,,,,,,,,,,,,,,,,,,,,,,
,,,,,,,,pngimages/06_tent.png,Irene Bradley,1082,2021-02-04_09h49.58.048,experiment,2020.1.3,Win32,60,,,,,,,,,,,,,,,,,test1,,,,,,,,,,,,,,,,,,,,,,j,3.176935,0,38,38,38,1,trainingaudio/06_titoka2.wav,trainingaudio/06_titoka3.wav,2,trainingaudio/06_titoka3.wav,,,,,,,,,,,,,,,,,,,,,,,,,,,,,,,,,,,
,,,,,,,,pngimages/16_icecream.png,Irene Bradley,1082,2021-02-04_09h49.58.048,experiment,2020.1.3,Win32,60,,,,,,,,,,,,,,,,,test1,,,,,,,,,,,,,,,,,,,,,,f,1.115195,0,39,39,39,1,trainingaudio/16_kokapi2.wav,trainingaudio/16_kokapi3.wav,1,trainingaudio/16_kokapi2.wav,,,,,,,,,,,,,,,,,,,,,,,,,,,,,,,,,,,
,,,,,,,,pngimages/04_ladder.png,Irene Bradley,1082,2021-02-04_09h49.58.048,experiment,2020.1.3,Win32,60,,,,,,,,,,,,,,,,,test1,,,,,,,,,,,,,,,,,,,,,,j,1.474035,0,40,40,40,1,trainingaudio/04_kitoti1.wav,trainingaudio/04_kitoti2.wav,2,trainingaudio/04_kitoti2.wav,,,,,,,,,,,,,,,,,,,,,,,,,,,,,,,,,,,
,,,,,,,,pngimages/22_egg.png,Irene Bradley,1082,2021-02-04_09h49.58.048,experiment,2020.1.3,Win32,60,,,,,,,,,,,,,,,,,test1,,,,,,,,,,,,,,,,,,,,,,j,1.98597,0,41,41,41,1,trainingaudio/22_kakoki2.wav,trainingaudio/22_kakoki1.wav,2,trainingaudio/22_kakoki1.wav,,,,,,,,,,,,,,,,,,,,,,,,,,,,,,,,,,,
,,,,,,,,pngimages/17_cracker.png,Irene Bradley,1082,2021-02-04_09h49.58.048,experiment,2020.1.3,Win32,60,,,,,,,,,,,,,,,,,test1,,,,,,,,,,,,,,,,,,,,,,f,0.33289,0,42,42,42,1,trainingaudio/17_kotako2.wav,trainingaudio/17_kotako3.wav,1,trainingaudio/17_kotako2.wav,,,,,,,,,,,,,,,,,,,,,,,,,,,,,,,,,,,
,,,,,,,,pngimages/13_toast.png,Irene Bradley,1082,2021-02-04_09h49.58.048,experiment,2020.1.3,Win32,60,,,,,,,,,,,,,,,,,test1,,,,,,,,,,,,,,,,,,,,,,j,2.249015,0,43,43,43,1,trainingaudio/13_kopopi3.wav,trainingaudio/13_kopopi1.wav,2,trainingaudio/13_kopopi1.wav,,,,,,,,,,,,,,,,,,,,,,,,,,,,,,,,,,,
,,,,,,,,pngimages/94_house.png,Irene Bradley,1082,2021-02-04_09h49.58.048,experiment,2020.1.3,Win32,60,,,,,,,,,,,,,,,,,test1,,,,,,,,,,,,,,,,,,,,,,f,0.775985,0,44,44,44,1,trainingaudio/94_kipipi2.wav,trainingaudio/94_kipipi1.wav,2,trainingaudio/94_kipipi1.wav,,,,,,,,,,,,,,,,,,,,,,,,,,,,,,,,,,,
,,,,,,,,pngimages/07_suitcase.png,Irene Bradley,1082,2021-02-04_09h49.58.048,experiment,2020.1.3,Win32,60,,,,,,,,,,,,,,,,,test1,,,,,,,,,,,,,,,,,,,,,,j,1.042445,0,45,45,45,1,trainingaudio/07_pitapi2.wav,trainingaudio/07_pitapi3.wav,1,trainingaudio/07_pitapi2.wav,,,,,,,,,,,,,,,,,,,,,,,,,,,,,,,,,,,
,,,,,,,,pngimages/10_backpack.png,Irene Bradley,1082,2021-02-04_09h49.58.048,experiment,2020.1.3,Win32,60,,,,,,,,,,,,,,,,,test1,,,,,,,,,,,,,,,,,,,,,,j,0.900765,0,46,46,46,1,trainingaudio/10_tokiti3.wav,trainingaudio/10_tokiti1.wav,2,trainingaudio/10_tokiti1.wav,,,,,,,,,,,,,,,,,,,,,,,,,,,,,,,,,,,
,,,,,,,,pngimages/19_burger.png,Irene Bradley,1082,2021-02-04_09h49.58.048,experiment,2020.1.3,Win32,60,,,,,,,,,,,,,,,,,test1,,,,,,,,,,,,,,,,,,,,,,j,0.839055,0,47,47,47,1,trainingaudio/19_papipi3.wav,trainingaudio/19_papipi1.wav,2,trainingaudio/19_papipi1.wav,,,,,,,,,,,,,,,,,,,,,,,,,,,,,,,,,,,
,,,,,,,,pngimages/18_donut.png,Irene Bradley,1082,2021-02-04_09h49.58.048,experiment,2020.1.3,Win32,60,,,,,,,,,,,,,,,,,test1,,,,,,,,,,,,,,,,,,,,,,j,1.26549,0,48,48,48,1,trainingaudio/18_popata2.wav,trainingaudio/18_popata3.wav,1,trainingaudio/18_popata2.wav,,,,,,,,,,,,,,,,,,,,,,,,,,,,,,,,,,,
,,,,,,,,pngimages/11_compass.png,Irene Bradley,1082,2021-02-04_09h49.58.048,experiment,2020.1.3,Win32,60,,,,,,,,,,,,,,,,,test1,,,,,,,,,,,,,,,,,,,,,,f,1.63874,0,49,49,49,1,trainingaudio/11_tokiko1.wav,trainingaudio/11_tokiko2.wav,1,trainingaudio/11_tokiko1.wav,,,,,,,,,,,,,,,,,,,,,,,,,,,,,,,,,,,
,,,,,,,,pngimages/21_cheese.png,Irene Bradley,1082,2021-02-04_09h49.58.048,experiment,2020.1.3,Win32,60,,,,,,,,,,,,,,,,,test1,,,,,,,,,,,,,,,,,,,,,,f,4.35403,0,50,50,50,1,trainingaudio/21_papika1.wav,trainingaudio/21_papika3.wav,1,trainingaudio/21_papika1.wav,,,,,,,,,,,,,,,,,,,,,,,,,,,,,,,,,,,
,,,,,,,,pngimages/05_megaphone.png,Irene Bradley,1082,2021-02-04_09h49.58.048,experiment,2020.1.3,Win32,60,,,,,,,,,,,,,,,,,test1,,,,,,,,,,,,,,,,,,,,,,j,3.249865,0,51,51,51,1,trainingaudio/05_titopo2.wav,trainingaudio/05_titopo3.wav,1,trainingaudio/05_titopo2.wav,,,,,,,,,,,,,,,,,,,,,,,,,,,,,,,,,,,
,,,,,,,,pngimages/26_pineapple.png,Irene Bradley,1082,2021-02-04_09h49.58.048,experiment,2020.1.3,Win32,60,,,,,,,,,,,,,,,,,test1,,,,,,,,,,,,,,,,,,,,,,f,1.32974,0,52,52,52,1,trainingaudio/26_kapako1.wav,trainingaudio/26_kapako2.wav,1,trainingaudio/26_kapako1.wav,,,,,,,,,,,,,,,,,,,,,,,,,,,,,,,,,,,
,,,,,,,,pngimages/23_lemon.png,Irene Bradley,1082,2021-02-04_09h49.58.048,experiment,2020.1.3,Win32,60,,,,,,,,,,,,,,,,,test1,,,,,,,,,,,,,,,,,,,,,,j,1.415545,0,53,53,53,1,trainingaudio/23_patoko1.wav,trainingaudio/23_patoko3.wav,1,trainingaudio/23_patoko1.wav,,,,,,,,,,,,,,,,,,,,,,,,,,,,,,,,,,,
,,,,,,,,pngimages/14_coffee.png,Irene Bradley,1082,2021-02-04_09h49.58.048,experiment,2020.1.3,Win32,60,,,,,,,,,,,,,,,,,test1,,,,,,,,,,,,,,,,,,,,,,f,0.898585,0,54,54,54,1,trainingaudio/14_pokoto2.wav,trainingaudio/14_pokoto1.wav,2,trainingaudio/14_pokoto1.wav,,,,,,,,,,,,,,,,,,,,,,,,,,,,,,,,,,,
,,,,,,,,pngimages/03_box.png,Irene Bradley,1082,2021-02-04_09h49.58.048,experiment,2020.1.3,Win32,60,,,,,,,,,,,,,,,,,test1,,,,,,,,,,,,,,,,,,,,,,f,0.38023,0,55,55,55,1,trainingaudio/03_kikita3.wav,trainingaudio/03_kikita1.wav,1,trainingaudio/03_kikita3.wav,,,,,,,,,,,,,,,,,,,,,,,,,,,,,,,,,,,
,,,,,,,,pngimages/67_laptop.png,Irene Bradley,1082,2021-02-04_09h49.58.048,experiment,2020.1.3,Win32,60,,,,,,,,,,,,,,,,,test2,,,,,,,,,,,,,,,,,,,,,,,,,,,,,novelaudio/67_tokoki1.wav,novelaudio/67_tokoki2.wav,1,,g,1.4132,h,10.81689,j,5.213305,0,0,0,0,1,,,,,,,,,,,,,,,,,,,,,,,,
,,,,,,,,pngimages/49_calculator.png,Irene Bradley,1082,2021-02-04_09h49.58.048,experiment,2020.1.3,Win32,60,,,,,,,,,,,,,,,,,test2,,,,,,,,,,,,,,,,,,,,,,,,,,,,,novelaudio/49_tatopi3.wav,novelaudio/49_tatopi1.wav,2,,,,,,j,4.37069,0,1,1,1,1,,,,,,,,,,,,,,,,,,,,,,,,
,,,,,,,,pngimages/59_umbrella.png,Irene Bradley,1082,2021-02-04_09h49.58.048,experiment,2020.1.3,Win32,60,,,,,,,,,,,,,,,,,test2,,,,,,,,,,,,,,,,,,,,,,,,,,,,,novelaudio/59_tipoko2.wav,novelaudio/59_tipoko3.wav,1,,,,,,f,0.84729,0,2,2,2,1,,,,,,,,,,,,,,,,,,,,,,,,
,,,,,,,,pngimages/45_scissors.png,Irene Bradley,1082,2021-02-04_09h49.58.048,experiment,2020.1.3,Win32,60,,,,,,,,,,,,,,,,,test2,,,,,,,,,,,,,,,,,,,,,,,,,,,,,novelaudio/45_totaka2.wav,novelaudio/45_totaka1.wav,1,,,,,,f,2.38364,0,3,3,3,1,,,,,,,,,,,,,,,,,,,,,,,,
,,,,,,,,pngimages/35_skillet.png,Irene Bradley,1082,2021-02-04_09h49.58.048,experiment,2020.1.3,Win32,60,,,,,,,,,,,,,,,,,test2,,,,,,,,,,,,,,,,,,,,,,,,,,,,,novelaudio/35_titato2.wav,novelaudio/35_titato1.wav,1,,,,,,j,0.810635,0,4,4,4,1,,,,,,,,,,,,,,,,,,,,,,,,
,,,,,,,,pngimages/39_fork.png,Irene Bradley,1082,2021-02-04_09h49.58.048,experiment,2020.1.3,Win32,60,,,,,,,,,,,,,,,,,test2,,,,,,,,,,,,,,,,,,,,,,,,,,,,,novelaudio/39_kotipa1.wav,novelaudio/39_kotipa3.wav,2,,,,,,f,1.71695,0,5,5,5,1,,,,,,,,,,,,,,,,,,,,,,,,
,,,,,,,,pngimages/68_heart.png,Irene Bradley,1082,2021-02-04_09h49.58.048,experiment,2020.1.3,Win32,60,,,,,,,,,,,,,,,,,test2,,,,,,,,,,,,,,,,,,,,,,,,,,,,,novelaudio/68_pokopo2.wav,novelaudio/68_pokopo1.wav,2,,,,,,j,1.60505,0,6,6,6,1,,,,,,,,,,,,,,,,,,,,,,,,
,,,,,,,,pngimages/74_boat.png,Irene Bradley,1082,2021-02-04_09h49.58.048,experiment,2020.1.3,Win32,60,,,,,,,,,,,,,,,,,test2,,,,,,,,,,,,,,,,,,,,,,,,,,,,,novelaudio/74_tatiko1.wav,novelaudio/74_tatiko2.wav,1,,,,,,f,1.022845,0,7,7,7,1,,,,,,,,,,,,,,,,,,,,,,,,
,,,,,,,,pngimages/75_chicken.png,Irene Bradley,1082,2021-02-04_09h49.58.048,experiment,2020.1.3,Win32,60,,,,,,,,,,,,,,,,,test2,,,,,,,,,,,,,,,,,,,,,,,,,,,,,novelaudio/75_kakita3.wav,novelaudio/75_kakita1.wav,2,,,,,,f,0.41812,0,8,8,8,1,,,,,,,,,,,,,,,,,,,,,,,,
,,,,,,,,pngimages/29_cherry.png,Irene Bradley,1082,2021-02-04_09h49.58.048,experiment,2020.1.3,Win32,60,,,,,,,,,,,,,,,,,test2,,,,,,,,,,,,,,,,,,,,,,,,,,,,,novelaudio/29_pipito3.wav,novelaudio/29_pipito2.wav,1,,,,,,f,1.072465,0,9,9,9,1,,,,,,,,,,,,,,,,,,,,,,,,
,,,,,,,,pngimages/62_screwdriver.png,Irene Bradley,1082,2021-02-04_09h49.58.048,experiment,2020.1.3,Win32,60,,,,,,,,,,,,,,,,,test2,,,,,,,,,,,,,,,,,,,,,,,,,,,,,novelaudio/62_pitako2.wav,novelaudio/62_pitako1.wav,1,,,,,,j,0.8595,0,10,10,10,1,,,,,,,,,,,,,,,,,,,,,,,,
,,,,,,,,pngimages/40_spoon.png,Irene Bradley,1082,2021-02-04_09h49.58.048,experiment,2020.1.3,Win32,60,,,,,,,,,,,,,,,,,test2,,,,,,,,,,,,,,,,,,,,,,,,,,,,,novelaudio/40_kototi2.wav,novelaudio/40_kototi1.wav,2,,,,,,f,2.594055,0,11,11,11,1,,,,,,,,,,,,,,,,,,,,,,,,
,,,,,,,,pngimages/52_newspaper.png,Irene Bradley,1082,2021-02-04_09h49.58.048,experiment,2020.1.3,Win32,60,,,,,,,,,,,,,,,,,test2,,,,,,,,,,,,,,,,,,,,,,,,,,,,,novelaudio/52_pakaki3.wav,novelaudio/52_pakaki1.wav,2,,,,,,f,0.351035,0,12,12,12,1,,,,,,,,,,,,,,,,,,,,,,,,
,,,,,,,,pngimages/46_paper.png,Irene Bradley,1082,2021-02-04_09h49.58.048,experiment,2020.1.3,Win32,60,,,,,,,,,,,,,,,,,test2,,,,,,,,,,,,,,,,,,,,,,,,,,,,,novelaudio/46_tapiti1.wav,novelaudio/46_tapiti2.wav,1,,,,,,f,0.43427,0,13,13,13,1,,,,,,,,,,,,,,,,,,,,,,,,
,,,,,,,,pngimages/78_cow.png,Irene Bradley,1082,2021-02-04_09h49.58.048,experiment,2020.1.3,Win32,60,,,,,,,,,,,,,,,,,test2,,,,,,,,,,,,,,,,,,,,,,,,,,,,,novelaudio/78_kakoka1.wav,novelaudio/78_kakoka2.wav,1,,,,,,f,0.745055,0,14,14,14,1,,,,,,,,,,,,,,,,,,,,,,,,
,,,,,,,,pngimages/37_mug.png,Irene Bradley,1082,2021-02-04_09h49.58.048,experiment,2020.1.3,Win32,60,,,,,,,,,,,,,,,,,test2,,,,,,,,,,,,,,,,,,,,,,,,,,,,,novelaudio/37_kokiti1.wav,novelaudio/37_kokiti3.wav,1,,,,,,f,0.35899,0,15,15,15,1,,,,,,,,,,,,,,,,,,,,,,,,
,,,,,,,,pngimages/41_piano.png,Irene Bradley,1082,2021-02-04_09h49.58.048,experiment,2020.1.3,Win32,60,,,,,,,,,,,,,,,,,test2,,,,,,,,,,,,,,,,,,,,,,,,,,,,,novelaudio/41_pototo1.wav,novelaudio/41_pototo2.wav,1,,,,,,f,0.301805,0,16,16,16,1,,,,,,,,,,,,,,,,,,,,,,,,
,,,,,,,,pngimages/50_ruler.png,Irene Bradley,1082,2021-02-04_09h49.58.048,experiment,2020.1.3,Win32,60,,,,,,,,,,,,,,,,,test2,,,,,,,,,,,,,,,,,,,,,,,,,,,,,novelaudio/50_katoko2.wav,novelaudio/50_katoko1.wav,2,,,,,,j,3.763355,0,17,17,17,1,,,,,,,,,,,,,,,,,,,,,,,,
,,,,,,,,pngimages/72_nose.png,Irene Bradley,1082,2021-02-04_09h49.58.048,experiment,2020.1.3,Win32,60,,,,,,,,,,,,,,,,,test2,,,,,,,,,,,,,,,,,,,,,,,,,,,,,novelaudio/72_topata2.wav,novelaudio/72_topata3.wav,1,,,,,,j,0.396485,0,18,18,18,1,,,,,,,,,,,,,,,,,,,,,,,,
,,,,,,,,pngimages/64_shovel.png,Irene Bradley,1082,2021-02-04_09h49.58.048,experiment,2020.1.3,Win32,60,,,,,,,,,,,,,,,,,test2,,,,,,,,,,,,,,,,,,,,,,,,,,,,,novelaudio/64_popiti3.wav,novelaudio/64_popiti1.wav,2,,,,,,j,0.456545,0,19,19,19,1,,,,,,,,,,,,,,,,,,,,,,,,
,,,,,,,,pngimages/61_key.png,Irene Bradley,1082,2021-02-04_09h49.58.048,experiment,2020.1.3,Win32,60,,,,,,,,,,,,,,,,,test2,,,,,,,,,,,,,,,,,,,,,,,,,,,,,novelaudio/61_pikati2.wav,novelaudio/61_pikati1.wav,1,,,,,,f,0.2945,0,20,20,20,1,,,,,,,,,,,,,,,,,,,,,,,,
,,,,,,,,pngimages/48_brush.png,Irene Bradley,1082,2021-02-04_09h49.58.048,experiment,2020.1.3,Win32,60,,,,,,,,,,,,,,,,,test2,,,,,,,,,,,,,,,,,,,,,,,,,,,,,novelaudio/48_pakipa1.wav,novelaudio/48_pakipa3.wav,1,,,,,,f,0.01934,0,21,21,21,1,,,,,,,,,,,,,,,,,,,,,,,,
,,,,,,,,pngimages/57_flashlight.png,Irene Bradley,1082,2021-02-04_09h49.58.048,experiment,2020.1.3,Win32,60,,,,,,,,,,,,,,,,,test2,,,,,,,,,,,,,,,,,,,,,,,,,,,,,novelaudio/57_tipipa3.wav,novelaudio/57_tipipa1.wav,1,,,,,,j,1.10701,0,22,22,22,1,,,,,,,,,,,,,,,,,,,,,,,,
,,,,,,,,pngimages/32_greenpepper.png,Irene Bradley,1082,2021-02-04_09h49.58.048,experiment,2020.1.3,Win32,60,,,,,,,,,,,,,,,,,test2,,,,,,,,,,,,,,,,,,,,,,,,,,,,,novelaudio/32_kipoto1.wav,novelaudio/32_kipoto2.wav,2,,,,,,j,0.80152,0,23,23,23,1,,,,,,,,,,,,,,,,,,,,,,,,
,,,,,,,,pngimages/54_toiletpaper.png,Irene Bradley,1082,2021-02-04_09h49.58.048,experiment,2020.1.3,Win32,60,,,,,,,,,,,,,,,,,test2,,,,,,,,,,,,,,,,,,,,,,,,,,,,,novelaudio/54_kapapa1.wav,novelaudio/54_kapapa2.wav,1,,,,,,j,0.77402,0,24,24,24,1,,,,,,,,,,,,,,,,,,,,,,,,
,,,,,,,,pngimages/79_pig.png,Irene Bradley,1082,2021-02-04_09h49.58.048,experiment,2020.1.3,Win32,60,,,,,,,,,,,,,,,,,test2,,,,,,,,,,,,,,,,,,,,,,,,,,,,,novelaudio/79_katapi1.wav,novelaudio/79_katapi2.wav,1,,,,,,j,0.410685,0,25,25,25,1,,,,,,,,,,,,,,,,,,,,,,,,
,,,,,,,,pngimages/55_toilet.png,Irene Bradley,1082,2021-02-04_09h49.58.048,experiment,2020.1.3,Win32,60,,,,,,,,,,,,,,,,,test2,,,,,,,,,,,,,,,,,,,,,,,,,,,,,novelaudio/55_pikiki3.wav,novelaudio/55_pikiki1.wav,2,,,,,,j,0.42018,0,26,26,26,1,,,,,,,,,,,,,,,,,,,,,,,,
,,,,,,,,pngimages/43_guitar.png,Irene Bradley,1082,2021-02-04_09h49.58.048,experiment,2020.1.3,Win32,60,,,,,,,,,,,,,,,,,test2,,,,,,,,,,,,,,,,,,,,,,,,,,,,,novelaudio/43_potaki3.wav,novelaudio/43_potaki2.wav,2,,,,,,j,0.33118,0,27,27,27,1,,,,,,,,,,,,,,,,,,,,,,,,
,,,,,,,,pngimages/53_hammer.png,Irene Bradley,1082,2021-02-04_09h49.58.048,experiment,2020.1.3,Win32,60,,,,,,,,,,,,,,,,,test2,,,,,,,,,,,,,,,,,,,,,,,,,,,,,novelaudio/53_patapo1.wav,novelaudio/53_patapo2.wav,1,,,,,,j,0.287235,0,28,28,28,1,,,,,,,,,,,,,,,,,,,,,,,,
,,,,,,,,pngimages/66_safe.png,Irene Bradley,1082,2021-02-04_09h49.58.048,experiment,2020.1.3,Win32,60,,,,,,,,,,,,,,,,,test2,,,,,,,,,,,,,,,,,,,,,,,,,,,,,novelaudio/66_kopipa2.wav,novelaudio/66_kopipa3.wav,2,,,,,,f,0.50896,0,29,29,29,1,,,,,,,,,,,,,,,,,,,,,,,,
,,,,,,,,pngimages/36_microwave.png,Irene Bradley,1082,2021-02-04_09h49.58.048,experiment,2020.1.3,Win32,60,,,,,,,,,,,,,,,,,test2,,,,,,,,,,,,,,,,,,,,,,,,,,,,,novelaudio/36_pipapa2.wav,novelaudio/36_pipapa1.wav,1,,,,,,j,0.24346,0,30,30,30,1,,,,,,,,,,,,,,,,,,,,,,,,
,,,,,,,,pngimages/81_cat.png,Irene Bradley,1082,2021-02-04_09h49.58.048,experiment,2020.1.3,Win32,60,,,,,,,,,,,,,,,,,test2,,,,,,,,,,,,,,,,,,,,,,,,,,,,,novelaudio/81_kakapa3.wav,novelaudio/81_kakapa1.wav,2,,,,,,f,0.05845,0,31,31,31,1,,,,,,,,,,,,,,,,,,,,,,,,
,,,,,,,,pngimages/28_grape.png,Irene Bradley,1082,2021-02-04_09h49.58.048,experiment,2020.1.3,Win32,60,,,,,,,,,,,,,,,,,test2,,,,,,,,,,,,,,,,,,,,,,,,,,,,,novelaudio/28_pipiki2.wav,novelaudio/28_pipiki1.wav,2,,,,,,f,0.58434,0,32,32,32,1,,,,,,,,,,,,,,,,,,,,,,,,
,,,,,,,,pngimages/65_wrench.png,Irene Bradley,1082,2021-02-04_09h49.58.048,experiment,2020.1.3,Win32,60,,,,,,,,,,,,,,,,,test2,,,,,,,,,,,,,,,,,,,,,,,,,,,,,novelaudio/65_totipo3.wav,novelaudio/65_totipo1.wav,2,,,,,,j,0.278265,0,33,33,33,1,,,,,,,,,,,,,,,,,,,,,,,,
,,,,,,,,pngimages/51_pencil.png,Irene Bradley,1082,2021-02-04_09h49.58.048,experiment,2020.1.3,Win32,60,,,,,,,,,,,,,,,,,test2,,,,,,,,,,,,,,,,,,,,,,,,,,,,,novelaudio/51_tapopa1.wav,novelaudio/51_tapopa3.wav,1,,,,,,f,1.20166,0,34,34,34,1,,,,,,,,,,,,,,,,,,,,,,,,
,,,,,,,,pngimages/44_envelope.png,Irene Bradley,1082,2021-02-04_09h49.58.048,experiment,2020.1.3,Win32,60,,,,,,,,,,,,,,,,,test2,,,,,,,,,,,,,,,,,,,,,,,,,,,,,novelaudio/44_pokato3.wav,novelaudio/44_pokato2.wav,2,,,,,,j,0.12403,0,35,35,35,1,,,,,,,,,,,,,,,,,,,,,,,,
,,,,,,,,pngimages/70_hand.png,Irene Bradley,1082,2021-02-04_09h49.58.048,experiment,2020.1.3,Win32,60,,,,,,,,,,,,,,,,,test2,,,,,,,,,,,,,,,,,,,,,,,,,,,,,novelaudio/70_kopati1.wav,novelaudio/70_kopati2.wav,2,,,,,,j,0.490955,0,36,36,36,1,,,,,,,,,,,,,,,,,,,,,,,,
,,,,,,,,pngimages/31_tomato.png,Irene Bradley,1082,2021-02-04_09h49.58.048,experiment,2020.1.3,Win32,60,,,,,,,,,,,,,,,,,test2,,,,,,,,,,,,,,,,,,,,,,,,,,,,,novelaudio/31_kikopi1.wav,novelaudio/31_kikopi2.wav,2,,,,,,j,1.427195,0,37,37,37,1,,,,,,,,,,,,,,,,,,,,,,,,
,,,,,,,,pngimages/69_tooth.png,Irene Bradley,1082,2021-02-04_09h49.58.048,experiment,2020.1.3,Win32,60,,,,,,,,,,,,,,,,,test2,,,,,,,,,,,,,,,,,,,,,,,,,,,,,novelaudio/69_kotota2.wav,novelaudio/69_kotota3.wav,2,,,,,,f,0.509615,0,38,38,38,1,,,,,,,,,,,,,,,,,,,,,,,,
,,,,,,,,pngimages/63_chair.png,Irene Bradley,1082,2021-02-04_09h49.58.048,experiment,2020.1.3,Win32,60,,,,,,,,,,,,,,,,,test2,,,,,,,,,,,,,,,,,,,,,,,,,,,,,novelaudio/63_pitapa2.wav,novelaudio/63_pitapa3.wav,1,,,,,,j,0.34204,0,39,39,39,1,,,,,,,,,,,,,,,,,,,,,,,,
,,,,,,,,pngimages/42_harp.png,Irene Bradley,1082,2021-02-04_09h49.58.048,experiment,2020.1.3,Win32,60,,,,,,,,,,,,,,,,,test2,,,,,,,,,,,,,,,,,,,,,,,,,,,,,novelaudio/42_tokota2.wav,novelaudio/42_tokota3.wav,2,,,,,,f,1.33501,0,40,40,40,1,,,,,,,,,,,,,,,,,,,,,,,,
,,,,,,,,pngimages/56_towel.png,Irene Bradley,1082,2021-02-04_09h49.58.048,experiment,2020.1.3,Win32,60,,,,,,,,,,,,,,,,,test2,,,,,,,,,,,,,,,,,,,,,,,,,,,,,novelaudio/56_pipiko3.wav,novelaudio/56_pipiko1.wav,1,,,,,,j,0.302475,0,41,41,41,1,,,,,,,,,,,,,,,,,,,,,,,,
,,,,,,,,pngimages/77_bear.png,Irene Bradley,1082,2021-02-04_09h49.58.048,experiment,2020.1.3,Win32,60,,,,,,,,,,,,,,,,,test2,,,,,,,,,,,,,,,,,,,,,,,,,,,,,novelaudio/77_takopo1.wav,novelaudio/77_takopo3.wav,1,,,,,,f,0.15692,0,42,42,42,1,,,,,,,,,,,,,,,,,,,,,,,,
,,,,,,,,pngimages/60_firewood.png,Irene Bradley,1082,2021-02-04_09h49.58.048,experiment,2020.1.3,Win32,60,,,,,,,,,,,,,,,,,test2,,,,,,,,,,,,,,,,,,,,,,,,,,,,,novelaudio/60_pipopa3.wav,novelaudio/60_pipopa1.wav,1,,,,,,f,1.852725,0,43,43,43,1,,,,,,,,,,,,,,,,,,,,,,,,
,,,,,,,,pngimages/76_rabbit.png,Irene Bradley,1082,2021-02-04_09h49.58.048,experiment,2020.1.3,Win32,60,,,,,,,,,,,,,,,,,test2,,,,,,,,,,,,,,,,,,,,,,,,,,,,,novelaudio/76_patoti1.wav,novelaudio/76_patoti2.wav,1,,,,,,j,0.266305,0,44,44,44,1,,,,,,,,,,,,,,,,,,,,,,,,
,,,,,,,,pngimages/80_dog.png,Irene Bradley,1082,2021-02-04_09h49.58.048,experiment,2020.1.3,Win32,60,,,,,,,,,,,,,,,,,test2,,,,,,,,,,,,,,,,,,,,,,,,,,,,,novelaudio/80_tatato2.wav,novelaudio/80_tatato1.wav,2,,,,,,j,0.24227,0,45,45,45,1,,,,,,,,,,,,,,,,,,,,,,,,
,,,,,,,,pngimages/47_notebook.png,Irene Bradley,1082,2021-02-04_09h49.58.048,experiment,2020.1.3,Win32,60,,,,,,,,,,,,,,,,,test2,,,,,,,,,,,,,,,,,,,,,,,,,,,,,novelaudio/47_takiko1.wav,novelaudio/47_takiko2.wav,1,,,,,,f,1.37777,0,46,46,46,1,,,,,,,,,,,,,,,,,,,,,,,,
,,,,,,,,pngimages/73_car.png,Irene Bradley,1082,2021-02-04_09h49.58.048,experiment,2020.1.3,Win32,60,,,,,,,,,,,,,,,,,test2,,,,,,,,,,,,,,,,,,,,,,,,,,,,,novelaudio/73_takiti2.wav,novelaudio/73_takiti1.wav,2,,,,,,j,0.385425,0,47,47,47,1,,,,,,,,,,,,,,,,,,,,,,,,
,,,,,,,,pngimages/58_nail.png,Irene Bradley,1082,2021-02-04_09h49.58.048,experiment,2020.1.3,Win32,60,,,,,,,,,,,,,,,,,test2,,,,,,,,,,,,,,,,,,,,,,,,,,,,,novelaudio/58_kipoki3.wav,novelaudio/58_kipoki2.wav,2,,,,,,j,0.245185,0,48,48,48,1,,,,,,,,,,,,,,,,,,,,,,,,
,,,,,,,,pngimages/71_eye.png,Irene Bradley,1082,2021-02-04_09h49.58.048,experiment,2020.1.3,Win32,60,,,,,,,,,,,,,,,,,test2,,,,,,,,,,,,,,,,,,,,,,,,,,,,,novelaudio/71_kotato1.wav,novelaudio/71_kotato2.wav,2,,,,,,j,0.32044,0,49,49,49,1,,,,,,,,,,,,,,,,,,,,,,,,
,,,,,,,,pngimages/34_knife.png,Irene Bradley,1082,2021-02-04_09h49.58.048,experiment,2020.1.3,Win32,60,,,,,,,,,,,,,,,,,test2,,,,,,,,,,,,,,,,,,,,,,,,,,,,,novelaudio/34_kipaki2.wav,novelaudio/34_kipaki1.wav,1,,,,,,f,0.408285,0,50,50,50,1,,,,,,,,,,,,,,,,,,,,,,,,
,,,,,,,,pngimages/33_watermelon.png,Irene Bradley,1082,2021-02-04_09h49.58.048,experiment,2020.1.3,Win32,60,,,,,,,,,,,,,,,,,test2,,,,,,,,,,,,,,,,,,,,,,,,,,,,,novelaudio/33_tipoka1.wav,novelaudio/33_tipoka3.wav,2,,,,,,f,2.85262,0,51,51,51,1,,,,,,,,,,,,,,,,,,,,,,,,
,,,,,,,,pngimages/30_mushroom.png,Irene Bradley,1082,2021-02-04_09h49.58.048,experiment,2020.1.3,Win32,60,,,,,,,,,,,,,,,,,test2,,,,,,,,,,,,,,,,,,,,,,,,,,,,,novelaudio/30_tikipa3.wav,novelaudio/30_tikipa2.wav,1,,,,,,f,0.028885,0,52,52,52,1,,,,,,,,,,,,,,,,,,,,,,,,
,,,,,,,,pngimages/38_plate.png,Irene Bradley,1082,2021-02-04_09h49.58.048,experiment,2020.1.3,Win32,60,,,,,,,,,,,,,,,,,test2,,,,,,,,,,,,,,,,,,,,,,,,,,,,,novelaudio/38_kokiko2.wav,novelaudio/38_kokiko1.wav,2,,,,,,j,0.4212,0,53,53,53,1,,,,,,,,,,,,,,,,,,,,,,,,
,,,,,,,,pngimages/65_wrench.png,Irene Bradley,1082,2021-02-04_09h49.58.048,experiment,2020.1.3,Win32,60,,,,,,,,,,,,,,,,,test3,,,,,,,,,,,,,,,,,,,,,,,,,,,,,novelaudio/65_totipo1.wav,novelaudio/65_totipo3.wav,1,,,,,,,,,,,,,h,2.123665,j,0.177365,0,0,0,0,1,,,,,,,,,,,,,,,
,,,,,,,,pngimages/68_heart.png,Irene Bradley,1082,2021-02-04_09h49.58.048,experiment,2020.1.3,Win32,60,,,,,,,,,,,,,,,,,test3,,,,,,,,,,,,,,,,,,,,,,,,,,,,,novelaudio/68_pokopo2.wav,novelaudio/68_pokopo1.wav,2,,,,,,,,,,,,,,,j,0.518335,0,1,1,1,1,,,,,,,,,,,,,,,
,,,,,,,,pngimages/49_calculator.png,Irene Bradley,1082,2021-02-04_09h49.58.048,experiment,2020.1.3,Win32,60,,,,,,,,,,,,,,,,,test3,,,,,,,,,,,,,,,,,,,,,,,,,,,,,novelaudio/49_tatopi1.wav,novelaudio/49_tatopi3.wav,1,,,,,,,,,,,,,,,f,0.38039,0,2,2,2,1,,,,,,,,,,,,,,,
,,,,,,,,pngimages/45_scissors.png,Irene Bradley,1082,2021-02-04_09h49.58.048,experiment,2020.1.3,Win32,60,,,,,,,,,,,,,,,,,test3,,,,,,,,,,,,,,,,,,,,,,,,,,,,,novelaudio/45_totaka2.wav,novelaudio/45_totaka3.wav,1,,,,,,,,,,,,,,,f,0.499605,0,3,3,3,1,,,,,,,,,,,,,,,
,,,,,,,,pngimages/58_nail.png,Irene Bradley,1082,2021-02-04_09h49.58.048,experiment,2020.1.3,Win32,60,,,,,,,,,,,,,,,,,test3,,,,,,,,,,,,,,,,,,,,,,,,,,,,,novelaudio/58_kipoki2.wav,novelaudio/58_kipoki3.wav,1,,,,,,,,,,,,,,,j,1.16391,0,4,4,4,1,,,,,,,,,,,,,,,
,,,,,,,,pngimages/31_tomato.png,Irene Bradley,1082,2021-02-04_09h49.58.048,experiment,2020.1.3,Win32,60,,,,,,,,,,,,,,,,,test3,,,,,,,,,,,,,,,,,,,,,,,,,,,,,novelaudio/31_kikopi2.wav,novelaudio/31_kikopi3.wav,1,,,,,,,,,,,,,,,f,0.70028,0,5,5,5,1,,,,,,,,,,,,,,,
,,,,,,,,pngimages/46_paper.png,Irene Bradley,1082,2021-02-04_09h49.58.048,experiment,2020.1.3,Win32,60,,,,,,,,,,,,,,,,,test3,,,,,,,,,,,,,,,,,,,,,,,,,,,,,novelaudio/46_tapiti2.wav,novelaudio/46_tapiti1.wav,2,,,,,,,,,,,,,,,j,0.268965,0,6,6,6,1,,,,,,,,,,,,,,,
,,,,,,,,pngimages/33_watermelon.png,Irene Bradley,1082,2021-02-04_09h49.58.048,experiment,2020.1.3,Win32,60,,,,,,,,,,,,,,,,,test3,,,,,,,,,,,,,,,,,,,,,,,,,,,,,novelaudio/33_tipoka3.wav,novelaudio/33_tipoka2.wav,1,,,,,,,,,,,,,,,j,1.381965,0,7,7,7,1,,,,,,,,,,,,,,,
,,,,,,,,pngimages/29_cherry.png,Irene Bradley,1082,2021-02-04_09h49.58.048,experiment,2020.1.3,Win32,60,,,,,,,,,,,,,,,,,test3,,,,,,,,,,,,,,,,,,,,,,,,,,,,,novelaudio/29_pipito3.wav,novelaudio/29_pipito1.wav,1,,,,,,,,,,,,,,,f,0.572635,0,8,8,8,1,,,,,,,,,,,,,,,
,,,,,,,,pngimages/41_piano.png,Irene Bradley,1082,2021-02-04_09h49.58.048,experiment,2020.1.3,Win32,60,,,,,,,,,,,,,,,,,test3,,,,,,,,,,,,,,,,,,,,,,,,,,,,,novelaudio/41_pototo1.wav,novelaudio/41_pototo2.wav,1,,,,,,,,,,,,,,,j,0.408805,0,9,9,9,1,,,,,,,,,,,,,,,
,,,,,,,,pngimages/67_laptop.png,Irene Bradley,1082,2021-02-04_09h49.58.048,experiment,2020.1.3,Win32,60,,,,,,,,,,,,,,,,,test3,,,,,,,,,,,,,,,,,,,,,,,,,,,,,novelaudio/67_tokoki2.wav,novelaudio/67_tokoki1.wav,2,,,,,,,,,,,,,,,f,0.630375,0,10,10,10,1,,,,,,,,,,,,,,,
,,,,,,,,pngimages/43_guitar.png,Irene Bradley,1082,2021-02-04_09h49.58.048,experiment,2020.1.3,Win32,60,,,,,,,,,,,,,,,,,test3,,,,,,,,,,,,,,,,,,,,,,,,,,,,,novelaudio/43_potaki2.wav,novelaudio/43_potaki3.wav,1,,,,,,,,,,,,,,,j,0.320045,0,11,11,11,1,,,,,,,,,,,,,,,
,,,,,,,,pngimages/69_tooth.png,Irene Bradley,1082,2021-02-04_09h49.58.048,experiment,2020.1.3,Win32,60,,,,,,,,,,,,,,,,,test3,,,,,,,,,,,,,,,,,,,,,,,,,,,,,novelaudio/69_kotota1.wav,novelaudio/69_kotota3.wav,2,,,,,,,,,,,,,,,f,0.001065,0,12,12,12,1,,,,,,,,,,,,,,,
,,,,,,,,pngimages/79_pig.png,Irene Bradley,1082,2021-02-04_09h49.58.048,experiment,2020.1.3,Win32,60,,,,,,,,,,,,,,,,,test3,,,,,,,,,,,,,,,,,,,,,,,,,,,,,novelaudio/79_katapi1.wav,novelaudio/79_katapi2.wav,1,,,,,,,,,,,,,,,j,0.013555,0,13,13,13,1,,,,,,,,,,,,,,,
,,,,,,,,pngimages/44_envelope.png,Irene Bradley,1082,2021-02-04_09h49.58.048,experiment,2020.1.3,Win32,60,,,,,,,,,,,,,,,,,test3,,,,,,,,,,,,,,,,,,,,,,,,,,,,,novelaudio/44_pokato1.wav,novelaudio/44_pokato2.wav,2,,,,,,,,,,,,,,,j,0.830615,0,14,14,14,1,,,,,,,,,,,,,,,
,,,,,,,,pngimages/80_dog.png,Irene Bradley,1082,2021-02-04_09h49.58.048,experiment,2020.1.3,Win32,60,,,,,,,,,,,,,,,,,test3,,,,,,,,,,,,,,,,,,,,,,,,,,,,,novelaudio/80_tatato1.wav,novelaudio/80_tatato2.wav,1,,,,,,,,,,,,,,,j,0.455565,0,15,15,15,1,,,,,,,,,,,,,,,
,,,,,,,,pngimages/55_toilet.png,Irene Bradley,1082,2021-02-04_09h49.58.048,experiment,2020.1.3,Win32,60,,,,,,,,,,,,,,,,,test3,,,,,,,,,,,,,,,,,,,,,,,,,,,,,novelaudio/55_pikiki1.wav,novelaudio/55_pikiki3.wav,1,,,,,,,,,,,,,,,j,0.633835,0,16,16,16,1,,,,,,,,,,,,,,,
,,,,,,,,pngimages/72_nose.png,Irene Bradley,1082,2021-02-04_09h49.58.048,experiment,2020.1.3,Win32,60,,,,,,,,,,,,,,,,,test3,,,,,,,,,,,,,,,,,,,,,,,,,,,,,novelaudio/72_topata3.wav,novelaudio/72_topata2.wav,2,,,,,,,,,,,,,,,f,0.912885,0,17,17,17,1,,,,,,,,,,,,,,,
,,,,,,,,pngimages/62_screwdriver.png,Irene Bradley,1082,2021-02-04_09h49.58.048,experiment,2020.1.3,Win32,60,,,,,,,,,,,,,,,,,test3,,,,,,,,,,,,,,,,,,,,,,,,,,,,,novelaudio/62_pitako3.wav,novelaudio/62_pitako2.wav,2,,,,,,,,,,,,,,,j,0.41787,0,18,18,18,1,,,,,,,,,,,,,,,
,,,,,,,,pngimages/35_skillet.png,Irene Bradley,1082,2021-02-04_09h49.58.048,experiment,2020.1.3,Win32,60,,,,,,,,,,,,,,,,,test3,,,,,,,,,,,,,,,,,,,,,,,,,,,,,novelaudio/35_titato2.wav,novelaudio/35_titato3.wav,1,,,,,,,,,,,,,,,f,0.522375,0,19,19,19,1,,,,,,,,,,,,,,,
,,,,,,,,pngimages/50_ruler.png,Irene Bradley,1082,2021-02-04_09h49.58.048,experiment,2020.1.3,Win32,60,,,,,,,,,,,,,,,,,test3,,,,,,,,,,,,,,,,,,,,,,,,,,,,,novelaudio/50_katoko3.wav,novelaudio/50_katoko1.wav,2,,,,,,,,,,,,,,,j,0.46813,0,20,20,20,1,,,,,,,,,,,,,,,
,,,,,,,,pngimages/59_umbrella.png,Irene Bradley,1082,2021-02-04_09h49.58.048,experiment,2020.1.3,Win32,60,,,,,,,,,,,,,,,,,test3,,,,,,,,,,,,,,,,,,,,,,,,,,,,,novelaudio/59_tipoko2.wav,novelaudio/59_tipoko3.wav,1,,,,,,,,,,,,,,,j,1.069175,0,21,21,21,1,,,,,,,,,,,,,,,
,,,,,,,,pngimages/47_notebook.png,Irene Bradley,1082,2021-02-04_09h49.58.048,experiment,2020.1.3,Win32,60,,,,,,,,,,,,,,,,,test3,,,,,,,,,,,,,,,,,,,,,,,,,,,,,novelaudio/47_takiko3.wav,novelaudio/47_takiko1.wav,2,,,,,,,,,,,,,,,j,0.77534,0,22,22,22,1,,,,,,,,,,,,,,,
,,,,,,,,pngimages/28_grape.png,Irene Bradley,1082,2021-02-04_09h49.58.048,experiment,2020.1.3,Win32,60,,,,,,,,,,,,,,,,,test3,,,,,,,,,,,,,,,,,,,,,,,,,,,,,novelaudio/28_pipiki3.wav,novelaudio/28_pipiki1.wav,2,,,,,,,,,,,,,,,f,0.01862,0,23,23,23,1,,,,,,,,,,,,,,,
,,,,,,,,pngimages/64_shovel.png,Irene Bradley,1082,2021-02-04_09h49.58.048,experiment,2020.1.3,Win32,60,,,,,,,,,,,,,,,,,test3,,,,,,,,,,,,,,,,,,,,,,,,,,,,,novelaudio/64_popiti1.wav,novelaudio/64_popiti2.wav,1,,,,,,,,,,,,,,,f,0.146215,0,24,24,24,1,,,,,,,,,,,,,,,
,,,,,,,,pngimages/34_knife.png,Irene Bradley,1082,2021-02-04_09h49.58.048,experiment,2020.1.3,Win32,60,,,,,,,,,,,,,,,,,test3,,,,,,,,,,,,,,,,,,,,,,,,,,,,,novelaudio/34_kipaki2.wav,novelaudio/34_kipaki3.wav,1,,,,,,,,,,,,,,,f,0.37388,0,25,25,25,1,,,,,,,,,,,,,,,
,,,,,,,,pngimages/48_brush.png,Irene Bradley,1082,2021-02-04_09h49.58.048,experiment,2020.1.3,Win32,60,,,,,,,,,,,,,,,,,test3,,,,,,,,,,,,,,,,,,,,,,,,,,,,,novelaudio/48_pakipa2.wav,novelaudio/48_pakipa1.wav,2,,,,,,,,,,,,,,,f,0.10966,0,26,26,26,1,,,,,,,,,,,,,,,
,,,,,,,,pngimages/56_towel.png,Irene Bradley,1082,2021-02-04_09h49.58.048,experiment,2020.1.3,Win32,60,,,,,,,,,,,,,,,,,test3,,,,,,,,,,,,,,,,,,,,,,,,,,,,,novelaudio/56_pipiko2.wav,novelaudio/56_pipiko3.wav,2,,,,,,,,,,,,,,,j,0.001405,0,27,27,27,1,,,,,,,,,,,,,,,
,,,,,,,,pngimages/81_cat.png,Irene Bradley,1082,2021-02-04_09h49.58.048,experiment,2020.1.3,Win32,60,,,,,,,,,,,,,,,,,test3,,,,,,,,,,,,,,,,,,,,,,,,,,,,,novelaudio/81_kakapa1.wav,novelaudio/81_kakapa3.wav,1,,,,,,,,,,,,,,,j,0.174695,0,28,28,28,1,,,,,,,,,,,,,,,
,,,,,,,,pngimages/32_greenpepper.png,Irene Bradley,1082,2021-02-04_09h49.58.048,experiment,2020.1.3,Win32,60,,,,,,,,,,,,,,,,,test3,,,,,,,,,,,,,,,,,,,,,,,,,,,,,novelaudio/32_kipoto2.wav,novelaudio/32_kipoto3.wav,1,,,,,,,,,,,,,,,f,0.6411,0,29,29,29,1,,,,,,,,,,,,,,,
,,,,,,,,pngimages/57_flashlight.png,Irene Bradley,1082,2021-02-04_09h49.58.048,experiment,2020.1.3,Win32,60,,,,,,,,,,,,,,,,,test3,,,,,,,,,,,,,,,,,,,,,,,,,,,,,novelaudio/57_tipipa3.wav,novelaudio/57_tipipa1.wav,1,,,,,,,,,,,,,,,j,0.481395,0,30,30,30,1,,,,,,,,,,,,,,,
,,,,,,,,pngimages/78_cow.png,Irene Bradley,1082,2021-02-04_09h49.58.048,experiment,2020.1.3,Win32,60,,,,,,,,,,,,,,,,,test3,,,,,,,,,,,,,,,,,,,,,,,,,,,,,novelaudio/78_kakoka3.wav,novelaudio/78_kakoka1.wav,2,,,,,,,,,,,,,,,f,0.303845,0,31,31,31,1,,,,,,,,,,,,,,,
,,,,,,,,pngimages/61_key.png,Irene Bradley,1082,2021-02-04_09h49.58.048,experiment,2020.1.3,Win32,60,,,,,,,,,,,,,,,,,test3,,,,,,,,,,,,,,,,,,,,,,,,,,,,,novelaudio/61_pikati1.wav,novelaudio/61_pikati2.wav,2,,,,,,,,,,,,,,,f,0.012645,0,32,32,32,1,,,,,,,,,,,,,,,
,,,,,,,,pngimages/37_mug.png,Irene Bradley,1082,2021-02-04_09h49.58.048,experiment,2020.1.3,Win32,60,,,,,,,,,,,,,,,,,test3,,,,,,,,,,,,,,,,,,,,,,,,,,,,,novelaudio/37_kokiti3.wav,novelaudio/37_kokiti1.wav,2,,,,,,,,,,,,,,,j,0.614075,0,33,33,33,1,,,,,,,,,,,,,,,
,,,,,,,,pngimages/39_fork.png,Irene Bradley,1082,2021-02-04_09h49.58.048,experiment,2020.1.3,Win32,60,,,,,,,,,,,,,,,,,test3,,,,,,,,,,,,,,,,,,,,,,,,,,,,,novelaudio/39_kotipa2.wav,novelaudio/39_kotipa3.wav,2,,,,,,,,,,,,,,,j,0.314045,0,34,34,34,1,,,,,,,,,,,,,,,
,,,,,,,,pngimages/51_pencil.png,Irene Bradley,1082,2021-02-04_09h49.58.048,experiment,2020.1.3,Win32,60,,,,,,,,,,,,,,,,,test3,,,,,,,,,,,,,,,,,,,,,,,,,,,,,novelaudio/51_tapopa2.wav,novelaudio/51_tapopa1.wav,2,,,,,,,,,,,,,,,f,0.03322,0,35,35,35,1,,,,,,,,,,,,,,,
,,,,,,,,pngimages/36_microwave.png,Irene Bradley,1082,2021-02-04_09h49.58.048,experiment,2020.1.3,Win32,60,,,,,,,,,,,,,,,,,test3,,,,,,,,,,,,,,,,,,,,,,,,,,,,,novelaudio/36_pipapa2.wav,novelaudio/36_pipapa3.wav,1,,,,,,,,,,,,,,,f,0.817965,0,36,36,36,1,,,,,,,,,,,,,,,
,,,,,,,,pngimages/53_hammer.png,Irene Bradley,1082,2021-02-04_09h49.58.048,experiment,2020.1.3,Win32,60,,,,,,,,,,,,,,,,,test3,,,,,,,,,,,,,,,,,,,,,,,,,,,,,novelaudio/53_patapo3.wav,novelaudio/53_patapo1.wav,2,,,,,,,,,,,,,,,j,0.32173,0,37,37,37,1,,,,,,,,,,,,,,,
,,,,,,,,pngimages/38_plate.png,Irene Bradley,1082,2021-02-04_09h49.58.048,experiment,2020.1.3,Win32,60,,,,,,,,,,,,,,,,,test3,,,,,,,,,,,,,,,,,,,,,,,,,,,,,novelaudio/38_kokiko2.wav,novelaudio/38_kokiko1.wav,2,,,,,,,,,,,,,,,j,0.272635,0,38,38,38,1,,,,,,,,,,,,,,,
,,,,,,,,pngimages/74_boat.png,Irene Bradley,1082,2021-02-04_09h49.58.048,experiment,2020.1.3,Win32,60,,,,,,,,,,,,,,,,,test3,,,,,,,,,,,,,,,,,,,,,,,,,,,,,novelaudio/74_tatiko1.wav,novelaudio/74_tatiko2.wav,1,,,,,,,,,,,,,,,j,0.01361,0,39,39,39,1,,,,,,,,,,,,,,,
,,,,,,,,pngimages/63_chair.png,Irene Bradley,1082,2021-02-04_09h49.58.048,experiment,2020.1.3,Win32,60,,,,,,,,,,,,,,,,,test3,,,,,,,,,,,,,,,,,,,,,,,,,,,,,novelaudio/63_pitapa1.wav,novelaudio/63_pitapa2.wav,2,,,,,,,,,,,,,,,f,0.130245,0,40,40,40,1,,,,,,,,,,,,,,,
,,,,,,,,pngimages/77_bear.png,Irene Bradley,1082,2021-02-04_09h49.58.048,experiment,2020.1.3,Win32,60,,,,,,,,,,,,,,,,,test3,,,,,,,,,,,,,,,,,,,,,,,,,,,,,novelaudio/77_takopo3.wav,novelaudio/77_takopo1.wav,2,,,,,,,,,,,,,,,f,0.172175,0,41,41,41,1,,,,,,,,,,,,,,,
,,,,,,,,pngimages/52_newspaper.png,Irene Bradley,1082,2021-02-04_09h49.58.048,experiment,2020.1.3,Win32,60,,,,,,,,,,,,,,,,,test3,,,,,,,,,,,,,,,,,,,,,,,,,,,,,novelaudio/52_pakaki1.wav,novelaudio/52_pakaki3.wav,1,,,,,,,,,,,,,,,f,1.08522,0,42,42,42,1,,,,,,,,,,,,,,,
,,,,,,,,pngimages/30_mushroom.png,Irene Bradley,1082,2021-02-04_09h49.58.048,experiment,2020.1.3,Win32,60,,,,,,,,,,,,,,,,,test3,,,,,,,,,,,,,,,,,,,,,,,,,,,,,novelaudio/30_tikipa3.wav,novelaudio/30_tikipa2.wav,1,,,,,,,,,,,,,,,f,0.39071,0,43,43,43,1,,,,,,,,,,,,,,,
,,,,,,,,pngimages/70_hand.png,Irene Bradley,1082,2021-02-04_09h49.58.048,experiment,2020.1.3,Win32,60,,,,,,,,,,,,,,,,,test3,,,,,,,,,,,,,,,,,,,,,,,,,,,,,novelaudio/70_kopati3.wav,novelaudio/70_kopati2.wav,2,,,,,,,,,,,,,,,j,0.14641,0,44,44,44,1,,,,,,,,,,,,,,,
,,,,,,,,pngimages/60_firewood.png,Irene Bradley,1082,2021-02-04_09h49.58.048,experiment,2020.1.3,Win32,60,,,,,,,,,,,,,,,,,test3,,,,,,,,,,,,,,,,,,,,,,,,,,,,,novelaudio/60_pipopa3.wav,novelaudio/60_pipopa1.wav,1,,,,,,,,,,,,,,,j,1.51306,0,45,45,45,1,,,,,,,,,,,,,,,
,,,,,,,,pngimages/75_chicken.png,Irene Bradley,1082,2021-02-04_09h49.58.048,experiment,2020.1.3,Win32,60,,,,,,,,,,,,,,,,,test3,,,,,,,,,,,,,,,,,,,,,,,,,,,,,novelaudio/75_kakita3.wav,novelaudio/75_kakita1.wav,2,,,,,,,,,,,,,,,j,0.03354,0,46,46,46,1,,,,,,,,,,,,,,,
,,,,,,,,pngimages/54_toiletpaper.png,Irene Bradley,1082,2021-02-04_09h49.58.048,experiment,2020.1.3,Win32,60,,,,,,,,,,,,,,,,,test3,,,,,,,,,,,,,,,,,,,,,,,,,,,,,novelaudio/54_kapapa3.wav,novelaudio/54_kapapa1.wav,2,,,,,,,,,,,,,,,j,3.526525,0,47,47,47,1,,,,,,,,,,,,,,,
,,,,,,,,pngimages/71_eye.png,Irene Bradley,1082,2021-02-04_09h49.58.048,experiment,2020.1.3,Win32,60,,,,,,,,,,,,,,,,,test3,,,,,,,,,,,,,,,,,,,,,,,,,,,,,novelaudio/71_kotato1.wav,novelaudio/71_kotato2.wav,2,,,,,,,,,,,,,,,f,0.256655,0,48,48,48,1,,,,,,,,,,,,,,,
,,,,,,,,pngimages/42_harp.png,Irene Bradley,1082,2021-02-04_09h49.58.048,experiment,2020.1.3,Win32,60,,,,,,,,,,,,,,,,,test3,,,,,,,,,,,,,,,,,,,,,,,,,,,,,novelaudio/42_tokota3.wav,novelaudio/42_tokota1.wav,1,,,,,,,,,,,,,,,f,0.37964,0,49,49,49,1,,,,,,,,,,,,,,,
,,,,,,,,pngimages/66_safe.png,Irene Bradley,1082,2021-02-04_09h49.58.048,experiment,2020.1.3,Win32,60,,,,,,,,,,,,,,,,,test3,,,,,,,,,,,,,,,,,,,,,,,,,,,,,novelaudio/66_kopipa3.wav,novelaudio/66_kopipa2.wav,1,,,,,,,,,,,,,,,j,0.03263,0,50,50,50,1,,,,,,,,,,,,,,,
,,,,,,,,pngimages/73_car.png,Irene Bradley,1082,2021-02-04_09h49.58.048,experiment,2020.1.3,Win32,60,,,,,,,,,,,,,,,,,test3,,,,,,,,,,,,,,,,,,,,,,,,,,,,,novelaudio/73_takiti2.wav,novelaudio/73_takiti1.wav,2,,,,,,,,,,,,,,,j,0.208465,0,51,51,51,1,,,,,,,,,,,,,,,
,,,,,,,,pngimages/40_spoon.png,Irene Bradley,1082,2021-02-04_09h49.58.048,experiment,2020.1.3,Win32,60,,,,,,,,,,,,,,,,,test3,,,,,,,,,,,,,,,,,,,,,,,,,,,,,novelaudio/40_kototi2.wav,novelaudio/40_kototi1.wav,2,,,,,,,,,,,,,,,j,0.535555,0,52,52,52,1,,,,,,,,,,,,,,,
,,,,,,,,pngimages/76_rabbit.png,Irene Bradley,1082,2021-02-04_09h49.58.048,experiment,2020.1.3,Win32,60,,,,,,,,,,,,,,,,,test3,,,,,,,,,,,,,,,,,,,,,,,,,,,,,novelaudio/76_patoti1.wav,novelaudio/76_patoti2.wav,1,,,,,,,,,,,,,,,f,0.23135,0,53,53,53,1,,,,,,,,,,,,,,,
,,,,,,,,,Irene Bradley,1082,2021-02-04_09h49.58.048,experiment,2020.1.3,Win32,60,,,,,,,,,,,,,,,,,postTest,,,,,,,,,,,,,,,,,,,,,,,,,,,,,,,,,,,,,,,,,,,,,,,,,,,,,b,7.99086,f,5.109465,0,0,0,0,1,postTest/82_tipiko1.wav,postTest/82_tipiko1.wav,postTest/82_tipiko3.wav,audioA,,
,,,,,,,,,Irene Bradley,1082,2021-02-04_09h49.58.048,experiment,2020.1.3,Win32,60,,,,,,,,,,,,,,,,,postTest,,,,,,,,,,,,,,,,,,,,,,,,,,,,,,,,,,,,,,,,,,,,,,,,,,,,,,,f,4.376625,0,1,1,1,1,postTest/83_pitita3.wav,postTest/83_pitita3.wav,postTest/83_pitita2.wav,audioA,,
,,,,,,,,,Irene Bradley,1082,2021-02-04_09h49.58.048,experiment,2020.1.3,Win32,60,,,,,,,,,,,,,,,,,postTest,,,,,,,,,,,,,,,,,,,,,,,,,,,,,,,,,,,,,,,,,,,,,,,,,,,,,,,j,0.30235,0,2,2,2,1,postTest/84_pitoka3.wav,postTest/84_pitoka1.wav,postTest/84_pitoka1.wav,audioB,,
,,,,,,,,,Irene Bradley,1082,2021-02-04_09h49.58.048,experiment,2020.1.3,Win32,60,,,,,,,,,,,,,,,,,postTest,,,,,,,,,,,,,,,,,,,,,,,,,,,,,,,,,,,,,,,,,,,,,,,,,,,,,,,f,0.167785,0,3,3,3,1,postTest/85_kipata2.wav,postTest/85_kipata2.wav,postTest/85_kipata3.wav,audioA,,
,,,,,,,,,Irene Bradley,1082,2021-02-04_09h49.58.048,experiment,2020.1.3,Win32,60,,,,,,,,,,,,,,,,,postTest,,,,,,,,,,,,,,,,,,,,,,,,,,,,,,,,,,,,,,,,,,,,,,,,,,,,,,,j,0.33484,0,4,4,4,1,postTest/86_totipa2.wav,postTest/86_totipa1.wav,postTest/86_totipa1.wav,audioB,,
,,,,,,,,,Irene Bradley,1082,2021-02-04_09h49.58.048,experiment,2020.1.3,Win32,60,,,,,,,,,,,,,,,,,postTest,,,,,,,,,,,,,,,,,,,,,,,,,,,,,,,,,,,,,,,,,,,,,,,,,,,,,,,j,0.3256,0,5,5,5,1,postTest/87_kopoko1.wav,postTest/87_kopoko3.wav,postTest/87_kopoko3.wav,audioB,,
,,,,,,,,,Irene Bradley,1082,2021-02-04_09h49.58.048,experiment,2020.1.3,Win32,60,,,,,,,,,,,,,,,,,postTest,,,,,,,,,,,,,,,,,,,,,,,,,,,,,,,,,,,,,,,,,,,,,,,,,,,,,,,f,0.16264,0,6,6,6,1,postTest/88_pokota2.wav,postTest/88_pokota2.wav,postTest/88_pokota1.wav,audioA,,
,,,,,,,,,Irene Bradley,1082,2021-02-04_09h49.58.048,experiment,2020.1.3,Win32,60,,,,,,,,,,,,,,,,,postTest,,,,,,,,,,,,,,,,,,,,,,,,,,,,,,,,,,,,,,,,,,,,,,,,,,,,,,,j,0.14324,0,7,7,7,1,postTest/89_totako3.wav,postTest/89_totako2.wav,postTest/89_totako2.wav,audioB,,
,,,,,,,,,Irene Bradley,1082,2021-02-04_09h49.58.048,experiment,2020.1.3,Win32,60,,,,,,,,,,,,,,,,,postTest,,,,,,,,,,,,,,,,,,,,,,,,,,,,,,,,,,,,,,,,,,,,,,,,,,,,,,,j,0.091555,0,8,8,8,1,postTest/90_papiki2.wav,postTest/90_papiki3.wav,postTest/90_papiki3.wav,audioB,,
,,,,,,,,,Irene Bradley,1082,2021-02-04_09h49.58.048,experiment,2020.1.3,Win32,60,,,,,,,,,,,,,,,,,postTest,,,,,,,,,,,,,,,,,,,,,,,,,,,,,,,,,,,,,,,,,,,,,,,,,,,,,,,f,0.28518,0,9,9,9,1,postTest/91_papipo1.wav,postTest/91_papipo1.wav,postTest/91_papipo2.wav,audioA,,
,,,,,,,,,Irene Bradley,1082,2021-02-04_09h49.58.048,experiment,2020.1.3,Win32,60,,,,,,,,,,,,,,,,,postTest,,,,,,,,,,,,,,,,,,,,,,,,,,,,,,,,,,,,,,,,,,,,,,,,,,,,,,,j,0.035275,0,10,10,10,1,postTest/92_katoki1.wav,postTest/92_katoki2.wav,postTest/92_katoki2.wav,audioB,,
,,,,,,,,,Irene Bradley,1082,2021-02-04_09h49.58.048,experiment,2020.1.3,Win32,60,,,,,,,,,,,,,,,,,postTest,,,,,,,,,,,,,,,,,,,,,,,,,,,,,,,,,,,,,,,,,,,,,,,,,,,,,,,f,0.050745,0,11,11,11,1,postTest/93_pakopa3.wav,postTest/93_pakopa3.wav,postTest/93_pakopa1.wav,audioA,,
,,,,,,,,,Irene Bradley,1082,2021-02-04_09h49.58.048,experiment,2020.1.3,Win32,60,,,,,,,,,,,,,,,,,,,,,,,,,,,,,,,,,,,,,,,,,,,,,,,,,,,,,,,,,,,,,,,,,,,,,,,,,,,,,,,,,,,k,2.203765
