condFiles,testFiles,audio,imageLoc,audioTrue,imageTrue,audioFalse,imageFalse,truePos,falsePos,train1blocks.thisRepN,train1blocks.thisTrialN,train1blocks.thisN,train1blocks.thisIndex,train2blocks.thisRepN,train2blocks.thisTrialN,train2blocks.thisN,train2blocks.thisIndex,blockloop2.thisRepN,blockloop2.thisTrialN,blockloop2.thisN,blockloop2.thisIndex,blocktest2.thisRepN,blocktest2.thisTrialN,blocktest2.thisN,blocktest2.thisIndex,test1Loop.thisRepN,test1Loop.thisTrialN,test1Loop.thisN,test1Loop.thisIndex,firstAudio,secondAudio,whichAudio,instructions.started,instructions.stopped,notice.started,notice.stopped,key_resp_3.keys,key_resp_3.rt,key_resp_3.started,key_resp_3.stopped,stimulitrain2.started,stimulitrain2.stopped,imagetrain2.started,imagetrain2.stopped,stimulitest2.started,stimulitest2.stopped,key_resp.keys,key_resp.started,key_resp.stopped,correct2.started,correct2.stopped,incorrect2.started,incorrect2.stopped,key_resp.rt,test1Instr.started,test1Instr.stopped,skipTest1Instr.keys,skipTest1Instr.rt,skipTest1Instr.started,skipTest1Instr.stopped,oneWarningTest1.started,oneWarningTest1.stopped,twoWarningTest1.started,twoWarningTest1.stopped,participant,session,date,expName,psychopyVersion,frameRate,
,,,,,,,,,,,,,,,,,,,,,,,,,,,,,,,,,14.64625830820296,None,17.36581105645746,None,h,4.924593374016695,17.36581105645746,None,,,,,,,,,,,,,,,,,,,,,,,,,1,001,2020_Jul_12_1533,sonority,2020.1.3,59.934259807664624,
autoConditions/train2Block1.xlsx,autoConditions/train2Block1Test.xlsx,trainingaudio/12_pokika3.wav,pngimages/12_pie.png,,,,,,,,,,,0,0,0,0,0,0,0,0,,,,,,,,,,,,,,,,,,,,22.40923279017443,23.413234427338466,22.45359439763706,None,,,,,,,,,,,,,,,,,,,,,1,001,2020_Jul_12_1533,sonority,2020.1.3,59.934259807664624,
autoConditions/train2Block1.xlsx,autoConditions/train2Block1Test.xlsx,trainingaudio/03_kikita3.wav,pngimages/03_box.png,,,,,,,,,,,0,0,0,0,0,1,1,1,,,,,,,,,,,,,,,,,,,,23.49563010846032,None,23.490414927131496,23.490414927131496,,,,,,,,,,,,,,,,,,,,,1,001,2020_Jul_12_1533,sonority,2020.1.3,59.934259807664624,
autoConditions/train2Block1.xlsx,autoConditions/train2Block1Test.xlsx,trainingaudio/26_kapako1.wav,pngimages/26_pineapple.png,,,,,,,,,,,0,0,0,0,0,2,2,2,,,,,,,,,,,,,,,,,,,,24.530014865391422,25.527977025019936,24.536186382872984,24.536186382872984,,,,,,,,,,,,,,,,,,,,,1,001,2020_Jul_12_1533,sonority,2020.1.3,59.934259807664624,
autoConditions/train2Block1.xlsx,autoConditions/train2Block1Test.xlsx,trainingaudio/05_titopo2.wav,pngimages/05_megaphone.png,,,,,,,,,,,0,0,0,0,0,3,3,3,,,,,,,,,,,,,,,,,,,,25.561335291247815,26.561896980158053,25.565530816093087,25.565530816093087,,,,,,,,,,,,,,,,,,,,,1,001,2020_Jul_12_1533,sonority,2020.1.3,59.934259807664624,
autoConditions/train2Block1.xlsx,autoConditions/train2Block1Test.xlsx,trainingaudio/20_tatito1.wav,pngimages/20_pizza.png,,,,,,,,,,,0,0,0,0,0,4,4,4,,,,,,,,,,,,,,,,,,,,26.61193437949987,None,26.603588677360676,26.603588677360676,,,,,,,,,,,,,,,,,,,,,1,001,2020_Jul_12_1533,sonority,2020.1.3,59.934259807664624,
autoConditions/train2Block1.xlsx,autoConditions/train2Block1Test.xlsx,trainingaudio/10_tokiti1.wav,pngimages/10_backpack.png,,,,,,,,,,,0,0,0,0,0,5,5,5,,,,,,,,,,,,,,,,,,,,27.61257347249193,28.61395855154842,27.619712502579205,27.619712502579205,,,,,,,,,,,,,,,,,,,,,1,001,2020_Jul_12_1533,sonority,2020.1.3,59.934259807664624,
autoConditions/train2Block1.xlsx,autoConditions/train2Block1Test.xlsx,trainingaudio/15_kopota3.wav,pngimages/15_barrel.png,,,,,,,,,,,0,0,0,0,0,6,6,6,,,,,,,,,,,,,,,,,,,,28.697354217118118,None,28.69117303355597,28.69117303355597,,,,,,,,,,,,,,,,,,,,,1,001,2020_Jul_12_1533,sonority,2020.1.3,59.934259807664624,
autoConditions/train2Block1.xlsx,autoConditions/train2Block1Test.xlsx,trainingaudio/04_kitoti2.wav,pngimages/04_ladder.png,,,,,,,,,,,0,0,0,0,0,7,7,7,,,,,,,,,,,,,,,,,,,,29.703370662231464,29.70596588717308,29.70596588717308,29.70596588717308,,,,,,,,,,,,,,,,,,,,,1,001,2020_Jul_12_1533,sonority,2020.1.3,59.934259807664624,
autoConditions/train2Block1.xlsx,autoConditions/train2Block1Test.xlsx,trainingaudio/16_kotapi2.wav,pngimages/16_icecream.png,,,,,,,,,,,0,0,0,0,0,8,8,8,,,,,,,,,,,,,,,,,,,,30.71544569049729,31.71596422197763,30.722264532232657,30.722264532232657,,,,,,,,,,,,,,,,,,,,,1,001,2020_Jul_12_1533,sonority,2020.1.3,59.934259807664624,
autoConditions/train2Block1.xlsx,autoConditions/train2Block1Test.xlsx,,,trainingaudio/26_kapako1.wav,pngimages/26_pineapple.png,trainingaudio/05_titopo2.wav,pngimages/05_megaphone.png,-0.5,0.5,,,,,0,0,0,0,,,,,0,0,0,0,,,,,,,,,,,,,,,,,,,,31.782680754433386,32.789620761875995,None,32.76664384827018,38.787054346408695,31.786321839899756,None,31.786321839899756,None,,,,,,,,,,,,1,001,2020_Jul_12_1533,sonority,2020.1.3,59.934259807664624,
autoConditions/train2Block1.xlsx,autoConditions/train2Block1Test.xlsx,,,trainingaudio/03_kikita3.wav,pngimages/03_box.png,trainingaudio/26_kapako1.wav,pngimages/26_pineapple.png,-0.5,0.5,,,,,0,0,0,0,,,,,0,1,1,1,,,,,,,,,,,,,,,,,,,,38.83709174575051,39.85134122299496,j,39.80657941789832,None,38.829823281033896,38.829823281033896,38.829823281033896,38.829823281033896,0.9993475407827646,,,,,,,,,,,1,001,2020_Jul_12_1533,sonority,2020.1.3,59.934259807664624,
autoConditions/train2Block1.xlsx,autoConditions/train2Block1Test.xlsx,,,trainingaudio/12_pokika3.wav,pngimages/12_pie.png,trainingaudio/03_kikita3.wav,pngimages/03_box.png,0.5,-0.5,,,,,0,0,0,0,,,,,0,2,2,2,,,,,,,,,,,,,,,,,,,,40.86886402225355,41.861133776488714,j,41.861133776488714,None,40.88460078975186,None,40.88460078975186,None,1.033928261953406,,,,,,,,,,,1,001,2020_Jul_12_1533,sonority,2020.1.3,59.934259807664624,
autoConditions/train2Block1.xlsx,autoConditions/train2Block1Test.xlsx,,,trainingaudio/10_tokiti1.wav,pngimages/10_backpack.png,trainingaudio/16_kotapi2.wav,pngimages/16_icecream.png,0.5,-0.5,,,,,0,0,0,0,,,,,0,3,3,3,,,,,,,,,,,,,,,,,,,,42.93550484988373,43.94817403901834,j,43.92657604988199,None,42.94724103726912,None,42.94724103726912,None,0.4425320406444371,,,,,,,,,,,1,001,2020_Jul_12_1533,sonority,2020.1.3,59.934259807664624,
autoConditions/train2Block1.xlsx,autoConditions/train2Block1Test.xlsx,,,trainingaudio/20_tatito1.wav,pngimages/20_pizza.png,trainingaudio/04_kitoti2.wav,pngimages/04_ladder.png,-0.5,0.5,,,,,0,0,0,0,,,,,0,4,4,4,,,,,,,,,,,,,,,,,,,,44.45080249104649,45.461730882525444,j,45.461730882525444,None,44.45882313407492,None,44.45882313407492,None,0.280614897608757,,,,,,,,,,,1,001,2020_Jul_12_1533,sonority,2020.1.3,59.934259807664624,
autoConditions/train2Block1.xlsx,autoConditions/train2Block1Test.xlsx,,,trainingaudio/04_kitoti2.wav,pngimages/04_ladder.png,trainingaudio/12_pokika3.wav,pngimages/12_pie.png,-0.5,0.5,,,,,0,0,0,0,,,,,0,5,5,5,,,,,,,,,,,,,,,,,,,,45.79754244099604,46.796010936261155,j,46.796010936261155,None,45.80239129369147,None,45.80239129369147,None,0.2554510369664058,,,,,,,,,,,1,001,2020_Jul_12_1533,sonority,2020.1.3,59.934259807664624,
autoConditions/train2Block1.xlsx,autoConditions/train2Block1Test.xlsx,,,trainingaudio/16_kotapi2.wav,pngimages/16_icecream.png,trainingaudio/15_kopota3.wav,pngimages/15_barrel.png,-0.5,0.5,,,,,0,0,0,0,,,,,0,6,6,6,,,,,,,,,,,,,,,,,,,,47.16340375342406,48.16491324524395,j,48.16491324524395,None,47.16644169157371,None,47.16644169157371,None,0.16762880492024124,,,,,,,,,,,1,001,2020_Jul_12_1533,sonority,2020.1.3,59.934259807664624,
autoConditions/train2Block1.xlsx,autoConditions/train2Block1Test.xlsx,,,trainingaudio/05_titopo2.wav,pngimages/05_megaphone.png,trainingaudio/20_tatito1.wav,pngimages/20_pizza.png,-0.5,0.5,,,,,0,0,0,0,,,,,0,7,7,7,,,,,,,,,,,,,,,,,,,,48.382673089567106,49.38445749785751,j,49.38445749785751,None,48.39061999123078,None,48.39061999123078,None,0.24382684007287025,,,,,,,,,,,1,001,2020_Jul_12_1533,sonority,2020.1.3,59.934259807664624,
autoConditions/train2Block1.xlsx,autoConditions/train2Block1Test.xlsx,,,trainingaudio/15_kopota3.wav,pngimages/15_barrel.png,trainingaudio/10_tokiti1.wav,pngimages/10_backpack.png,0.5,-0.5,,,,,0,0,0,0,,,,,0,8,8,8,,,,,,,,,,,,,,,,,,,,49.69899642851669,50.70144058344886,j,50.68916505982634,None,49.695008119917475,None,49.695008119917475,None,0.22496895352378488,,,,,,,,,,,1,001,2020_Jul_12_1533,sonority,2020.1.3,59.934259807664624,
autoConditions/train2Block1.xlsx,autoConditions/train2Block1Test.xlsx,,,,,,,,,,,,,0,0,0,0,,,,,,,,,,,,,,,,,,,,,,,,,,,,,,,,,,,,,,,,,,,,,,,,1,001,2020_Jul_12_1533,sonority,2020.1.3,59.934259807664624,
autoConditions/train2Block2.xlsx,autoConditions/train2Block2Test.xlsx,trainingaudio/02_pitito3.wav,pngimages/02_pallet.png,,,,,,,,,,,0,1,1,1,0,0,0,0,,,,,,,,,,,,,,,,,,,,50.955521531403065,None,50.954856460914016,None,,,,,,,,,,,,,,,,,,,,,1,001,2020_Jul_12_1533,sonority,2020.1.3,59.934259807664624,
autoConditions/train2Block2.xlsx,autoConditions/train2Block2Test.xlsx,trainingaudio/27_pakapa1.wav,pngimages/27_kiwi.png,,,,,,,,,,,0,1,1,1,0,1,1,1,,,,,,,,,,,,,,,,,,,,51.97183463786496,51.98477821482811,51.98477821482811,51.98477821482811,,,,,,,,,,,,,,,,,,,,,1,001,2020_Jul_12_1533,sonority,2020.1.3,59.934259807664624,
autoConditions/train2Block2.xlsx,autoConditions/train2Block2Test.xlsx,trainingaudio/09_tipata2.wav,pngimages/09_plane.png,,,,,,,,,,,0,1,1,1,0,2,2,2,,,,,,,,,,,,,,,,,,,,53.00051517097745,54.00136948493309,53.003867180785164,53.003867180785164,,,,,,,,,,,,,,,,,,,,,1,001,2020_Jul_12_1533,sonority,2020.1.3,59.934259807664624,
autoConditions/train2Block2.xlsx,autoConditions/train2Block2Test.xlsx,trainingaudio/17_kotako2.wav,pngimages/17_cracker.png,,,,,,,,,,,0,1,1,1,0,3,3,3,,,,,,,,,,,,,,,,,,,,54.01804861804703,55.01892622874584,54.02512534742709,54.02512534742709,,,,,,,,,,,,,,,,,,,,,1,001,2020_Jul_12_1533,sonority,2020.1.3,59.934259807664624,
autoConditions/train2Block2.xlsx,autoConditions/train2Block2Test.xlsx,trainingaudio/11_tokiko1.wav,pngimages/11_compass.png,,,,,,,,,,,0,1,1,1,0,4,4,4,,,,,,,,,,,,,,,,,,,,55.03560536185978,None,55.03690473001916,55.03690473001916,,,,,,,,,,,,,,,,,,,,,1,001,2020_Jul_12_1533,sonority,2020.1.3,59.934259807664624,
autoConditions/train2Block2.xlsx,autoConditions/train2Block2Test.xlsx,trainingaudio/24_takopa1.wav,pngimages/24_banana.png,,,,,,,,,,,0,1,1,1,0,5,5,5,,,,,,,,,,,,,,,,,,,,56.10437668807572,57.10296736843884,56.121339308680035,56.121339308680035,,,,,,,,,,,,,,,,,,,,,1,001,2020_Jul_12_1533,sonority,2020.1.3,59.934259807664624,
autoConditions/train2Block2.xlsx,autoConditions/train2Block2Test.xlsx,trainingaudio/08_tipako2.wav,pngimages/08_bell.png,,,,,,,,,,,0,1,1,1,0,6,6,6,,,,,,,,,,,,,,,,,,,,57.13717454910511,None,57.13827153411694,57.13827153411694,,,,,,,,,,,,,,,,,,,,,1,001,2020_Jul_12_1533,sonority,2020.1.3,59.934259807664624,
autoConditions/train2Block2.xlsx,autoConditions/train2Block2Test.xlsx,trainingaudio/13_kopopi1.wav,pngimages/13_toast.png,,,,,,,,,,,0,1,1,1,0,7,7,7,,,,,,,,,,,,,,,,,,,,58.13814002281288,58.14011677063536,58.14011677063536,58.14011677063536,,,,,,,,,,,,,,,,,,,,,1,001,2020_Jul_12_1533,sonority,2020.1.3,59.934259807664624,
autoConditions/train2Block2.xlsx,autoConditions/train2Block2Test.xlsx,trainingaudio/18_popata2.wav,pngimages/18_donut.png,,,,,,,,,,,0,1,1,1,0,8,8,8,,,,,,,,,,,,,,,,,,,,59.15738179557957,59.153856174321845,59.153856174321845,59.153856174321845,,,,,,,,,,,,,,,,,,,,,1,001,2020_Jul_12_1533,sonority,2020.1.3,59.934259807664624,
autoConditions/train2Block2.xlsx,autoConditions/train2Block2Test.xlsx,,,trainingaudio/27_pakapa1.wav,pngimages/27_kiwi.png,trainingaudio/08_tipako2.wav,pngimages/08_bell.png,-0.5,0.5,,,,,0,1,1,1,,,,,0,0,0,0,,,,,,,,,,,,,,,,,,,,60.199569142831024,61.19735157408286,j,61.19735157408286,None,60.199971228372306,None,60.199971228372306,None,0.5422586343483999,,,,,,,,,,,1,001,2020_Jul_12_1533,sonority,2020.1.3,59.934259807664624,
autoConditions/train2Block2.xlsx,autoConditions/train2Block2Test.xlsx,,,trainingaudio/02_pitito3.wav,pngimages/02_pallet.png,trainingaudio/24_takopa1.wav,pngimages/24_banana.png,0.5,-0.5,,,,,0,1,1,1,,,,,0,1,1,1,,,,,,,,,,,,,,,,,,,,61.803313383308705,62.81384255876765,j,62.79523651849013,None,61.813232010928914,None,61.813232010928914,None,0.14532851590774953,,,,,,,,,,,1,001,2020_Jul_12_1533,sonority,2020.1.3,59.934259807664624,
autoConditions/train2Block2.xlsx,autoConditions/train2Block2Test.xlsx,,,trainingaudio/08_tipako2.wav,pngimages/08_bell.png,trainingaudio/18_popata2.wav,pngimages/18_donut.png,0.5,-0.5,,,,,0,1,1,1,,,,,0,2,2,2,,,,,,,,,,,,,,,,,,,,62.98098858911544,63.99357622093521,j,63.96144297730643,None,62.98703312629368,None,62.98703312629368,None,0.22502030432224274,,,,,,,,,,,1,001,2020_Jul_12_1533,sonority,2020.1.3,59.934259807664624,
autoConditions/train2Block2.xlsx,autoConditions/train2Block2Test.xlsx,,,trainingaudio/18_popata2.wav,pngimages/18_donut.png,trainingaudio/27_pakapa1.wav,pngimages/27_kiwi.png,-0.5,0.5,,,,,0,1,1,1,,,,,0,3,3,3,,,,,,,,,,,,,,,,,,,,64.22983838419896,65.22907136694994,j,65.22907136694994,None,64.23277769831475,None,64.23277769831475,None,0.14105543598998338,,,,,,,,,,,1,001,2020_Jul_12_1533,sonority,2020.1.3,59.934259807664624,
autoConditions/train2Block2.xlsx,autoConditions/train2Block2Test.xlsx,,,trainingaudio/24_takopa1.wav,pngimages/24_banana.png,trainingaudio/17_kotako2.wav,pngimages/17_cracker.png,-0.5,0.5,,,,,0,1,1,1,,,,,0,4,4,4,,,,,,,,,,,,,,,,,,,,65.43296758359065,66.447852906771,j,66.4291313267313,None,65.43642240855843,None,65.43642240855843,None,0.16816874535288662,,,,,,,,,,,1,001,2020_Jul_12_1533,sonority,2020.1.3,59.934259807664624,
autoConditions/train2Block2.xlsx,autoConditions/train2Block2Test.xlsx,,,trainingaudio/09_tipata2.wav,pngimages/09_plane.png,trainingaudio/11_tokiko1.wav,pngimages/11_compass.png,0.5,-0.5,,,,,0,1,1,1,,,,,0,5,5,5,,,,,,,,,,,,,,,,,,,,66.64577428757912,67.65306306618731,j,67.63002876040991,None,66.65589341055602,None,66.65589341055602,None,0.13143694726750255,,,,,,,,,,,1,001,2020_Jul_12_1533,sonority,2020.1.3,59.934259807664624,
autoConditions/train2Block2.xlsx,autoConditions/train2Block2Test.xlsx,,,trainingaudio/17_kotako2.wav,pngimages/17_cracker.png,trainingaudio/09_tipata2.wav,pngimages/09_plane.png,0.5,-0.5,,,,,0,1,1,1,,,,,0,6,6,6,,,,,,,,,,,,,,,,,,,,67.81342121650232,68.81428168504499,j,68.81428168504499,None,67.82103697990533,None,67.82103697990533,None,0.20057460223324597,,,,,,,,,,,1,001,2020_Jul_12_1533,sonority,2020.1.3,59.934259807664624,
autoConditions/train2Block2.xlsx,autoConditions/train2Block2Test.xlsx,,,trainingaudio/13_kopopi1.wav,pngimages/13_toast.png,trainingaudio/02_pitito3.wav,pngimages/02_pallet.png,-0.5,0.5,,,,,0,1,1,1,,,,,0,7,7,7,,,,,,,,,,,,,,,,,,,,69.04768140963279,70.0558509704424,j,70.03252328454982,None,69.05471445282456,None,69.05471445282456,None,0.15260071877855808,,,,,,,,,,,1,001,2020_Jul_12_1533,sonority,2020.1.3,59.934259807664624,
autoConditions/train2Block2.xlsx,autoConditions/train2Block2Test.xlsx,,,trainingaudio/11_tokiko1.wav,pngimages/11_compass.png,trainingaudio/13_kopopi1.wav,pngimages/13_toast.png,-0.5,0.5,,,,,0,1,1,1,,,,,0,8,8,8,,,,,,,,,,,,,,,,,,,,70.2216143006226,71.23309524357319,j,71.21528363297693,None,70.22587590210605,None,70.22587590210605,None,0.15832597366534173,,,,,,,,,,,1,001,2020_Jul_12_1533,sonority,2020.1.3,59.934259807664624,
autoConditions/train2Block2.xlsx,autoConditions/train2Block2Test.xlsx,,,,,,,,,,,,,0,1,1,1,,,,,,,,,,,,,,,,,,,,,,,,,,,,,,,,,,,,,,,,,,,,,,,,1,001,2020_Jul_12_1533,sonority,2020.1.3,59.934259807664624,
autoConditions/train2Block3.xlsx,autoConditions/train2Block3Test.xlsx,trainingaudio/01_kitipi1.wav,pngimages/01_gift.png,,,,,,,,,,,0,2,2,2,0,0,0,0,,,,,,,,,,,,,,,,,,,,71.43884877936216,72.4497426977614,71.45140178699512,None,,,,,,,,,,,,,,,,,,,,,1,001,2020_Jul_12_1533,sonority,2020.1.3,59.934259807664624,
autoConditions/train2Block3.xlsx,autoConditions/train2Block3Test.xlsx,trainingaudio/19_papipi1.wav,pngimages/19_burger.png,,,,,,,,,,,0,2,2,2,0,1,1,1,,,,,,,,,,,,,,,,,,,,72.46642183087533,None,72.47164388408419,72.47164388408419,,,,,,,,,,,,,,,,,,,,,1,001,2020_Jul_12_1533,sonority,2020.1.3,59.934259807664624,
autoConditions/train2Block3.xlsx,autoConditions/train2Block3Test.xlsx,trainingaudio/21_papika1.wav,pngimages/21_cheese.png,,,,,,,,,,,0,2,2,2,0,2,2,2,,,,,,,,,,,,,,,,,,,,73.48740349512082,73.49208534380887,73.49208534380887,73.49208534380887,,,,,,,,,,,,,,,,,,,,,1,001,2020_Jul_12_1533,sonority,2020.1.3,59.934259807664624,
autoConditions/train2Block3.xlsx,autoConditions/train2Block3Test.xlsx,trainingaudio/07_pitapi2.wav,pngimages/07_suitcase.png,,,,,,,,,,,0,2,2,2,0,3,3,3,,,,,,,,,,,,,,,,,,,,74.50217569508823,74.50278069253545,74.50278069253545,74.50278069253545,,,,,,,,,,,,,,,,,,,,,1,001,2020_Jul_12_1533,sonority,2020.1.3,59.934259807664624,
autoConditions/train2Block3.xlsx,autoConditions/train2Block3Test.xlsx,trainingaudio/06_titoka3.wav,pngimages/06_tent.png,,,,,,,,,,,0,2,2,2,0,4,4,4,,,,,,,,,,,,,,,,,,,,75.50356972269947,76.50345844973344,75.50445450737607,75.50445450737607,,,,,,,,,,,,,,,,,,,,,1,001,2020_Jul_12_1533,sonority,2020.1.3,59.934259807664624,
autoConditions/train2Block3.xlsx,autoConditions/train2Block3Test.xlsx,trainingaudio/14_pokoto1.wav,pngimages/14_coffee.png,,,,,,,,,,,0,2,2,2,0,5,5,5,,,,,,,,,,,,,,,,,,,,76.52013758284738,77.52192969375756,76.52461051614955,76.52461051614955,,,,,,,,,,,,,,,,,,,,,1,001,2020_Jul_12_1533,sonority,2020.1.3,59.934259807664624,
autoConditions/train2Block3.xlsx,autoConditions/train2Block3Test.xlsx,trainingaudio/25_tapapi1.wav,pngimages/25_apple.png,,,,,,,,,,,0,2,2,2,0,6,6,6,,,,,,,,,,,,,,,,,,,,77.5386088268715,None,77.54007433052175,77.54007433052175,,,,,,,,,,,,,,,,,,,,,1,001,2020_Jul_12_1533,sonority,2020.1.3,59.934259807664624,
autoConditions/train2Block3.xlsx,autoConditions/train2Block3Test.xlsx,trainingaudio/22_kakoki1.wav,pngimages/22_egg.png,,,,,,,,,,,0,2,2,2,0,7,7,7,,,,,,,,,,,,,,,,,,,,78.55608692055102,79.55597425054293,78.56321435899008,78.56321435899008,,,,,,,,,,,,,,,,,,,,,1,001,2020_Jul_12_1533,sonority,2020.1.3,59.934259807664624,
autoConditions/train2Block3.xlsx,autoConditions/train2Block3Test.xlsx,trainingaudio/23_patoko1.wav,pngimages/23_lemon.png,,,,,,,,,,,0,2,2,2,0,8,8,8,,,,,,,,,,,,,,,,,,,,79.57265338365687,80.57279206905514,79.58813845587429,79.58813845587429,,,,,,,,,,,,,,,,,,,,,1,001,2020_Jul_12_1533,sonority,2020.1.3,59.934259807664624,
autoConditions/train2Block3.xlsx,autoConditions/train2Block3Test.xlsx,,,trainingaudio/21_papika1.wav,pngimages/21_cheese.png,trainingaudio/06_titoka3.wav,pngimages/06_tent.png,0.5,-0.5,,,,,0,2,2,2,,,,,0,0,0,0,,,,,,,,,,,,,,,,,,,,80.6395086015109,81.65586773504037,j,81.62573529116344,None,80.63941465946846,None,80.63941465946846,None,1.0752544610295445,,,,,,,,,,,1,001,2020_Jul_12_1533,sonority,2020.1.3,59.934259807664624,
autoConditions/train2Block3.xlsx,autoConditions/train2Block3Test.xlsx,,,trainingaudio/23_patoko1.wav,pngimages/23_lemon.png,trainingaudio/25_tapapi1.wav,pngimages/25_apple.png,0.5,-0.5,,,,,0,2,2,2,,,,,0,1,1,1,,,,,,,,,,,,,,,,,,,,82.75558050943073,83.76030766789336,j,83.74789281701669,None,82.75524582201615,None,82.75524582201615,None,0.12816747662145644,,,,,,,,,,,1,001,2020_Jul_12_1533,sonority,2020.1.3,59.934259807664624,
autoConditions/train2Block3.xlsx,autoConditions/train2Block3Test.xlsx,,,trainingaudio/14_pokoto1.wav,pngimages/14_coffee.png,trainingaudio/01_kitipi1.wav,pngimages/01_gift.png,0.5,-0.5,,,,,0,2,2,2,,,,,0,2,2,2,,,,,,,,,,,,,,,,,,,,83.91422138537746,84.92910357459914,j,84.89413696585689,None,83.92187290568836,None,83.92187290568836,None,0.1883659103186801,,,,,,,,,,,1,001,2020_Jul_12_1533,sonority,2020.1.3,59.934259807664624,
autoConditions/train2Block3.xlsx,autoConditions/train2Block3Test.xlsx,,,trainingaudio/06_titoka3.wav,pngimages/06_tent.png,trainingaudio/07_pitapi2.wav,pngimages/07_suitcase.png,-0.5,0.5,,,,,0,2,2,2,,,,,0,3,3,3,,,,,,,,,,,,,,,,,,,,85.11576674738899,86.13042314327322,j,86.09628532407805,None,85.12005968799349,None,85.12005968799349,None,0.8508088344242424,,,,,,,,,,,1,001,2020_Jul_12_1533,sonority,2020.1.3,59.934259807664624,
autoConditions/train2Block3.xlsx,autoConditions/train2Block3Test.xlsx,,,trainingaudio/07_pitapi2.wav,pngimages/07_suitcase.png,trainingaudio/14_pokoto1.wav,pngimages/14_coffee.png,-0.5,0.5,,,,,0,2,2,2,,,,,0,4,4,4,,,,,,,,,,,,,,,,,,,,86.98117775702849,87.99712094780989,j,87.96332861483097,None,86.98645127459895,None,86.98645127459895,None,0.09015228203497827,,,,,,,,,,,1,001,2020_Jul_12_1533,sonority,2020.1.3,59.934259807664624,
autoConditions/train2Block3.xlsx,autoConditions/train2Block3Test.xlsx,,,trainingaudio/25_tapapi1.wav,pngimages/25_apple.png,trainingaudio/23_patoko1.wav,pngimages/23_lemon.png,-0.5,0.5,,,,,0,2,2,2,,,,,0,5,5,5,,,,,,,,,,,,,,,,,,,,88.09727360366378,89.09790363465436,j,89.09790363465436,None,88.09944454114884,None,88.09944454114884,None,1.6151773816673085,,,,,,,,,,,1,001,2020_Jul_12_1533,sonority,2020.1.3,59.934259807664624,
autoConditions/train2Block3.xlsx,autoConditions/train2Block3Test.xlsx,,,trainingaudio/22_kakoki1.wav,pngimages/22_egg.png,trainingaudio/19_papipi1.wav,pngimages/19_burger.png,-0.5,0.5,,,,,0,2,2,2,,,,,0,6,6,6,,,,,,,,,,,,,,,,,,,,90.76980574609479,91.78669488965534,j,91.76684434351046,None,90.77159581810702,None,90.77159581810702,None,0.9911227019038051,,,,,,,,,,,1,001,2020_Jul_12_1533,sonority,2020.1.3,59.934259807664624,
autoConditions/train2Block3.xlsx,autoConditions/train2Block3Test.xlsx,,,trainingaudio/19_papipi1.wav,pngimages/19_burger.png,trainingaudio/21_papika1.wav,pngimages/21_cheese.png,0.5,-0.5,,,,,0,2,2,2,,,,,0,7,7,7,,,,,,,,,,,,,,,,,,,,92.83437569497619,93.83505239500664,j,93.83505239500664,None,92.8407731190091,None,92.8407731190091,None,0.08493071957491338,,,,,,,,,,,1,001,2020_Jul_12_1533,sonority,2020.1.3,59.934259807664624,
autoConditions/train2Block3.xlsx,autoConditions/train2Block3Test.xlsx,,,trainingaudio/01_kitipi1.wav,pngimages/01_gift.png,trainingaudio/22_kakoki1.wav,pngimages/22_egg.png,-0.5,0.5,,,,,0,2,2,2,,,,,0,8,8,8,,,,,,,,,,,,,,,,,,,,93.97309477539966,94.989692049101,j,94.96935593429953,None,93.97297466697637,None,93.97297466697637,None,0.08585805771872401,,,,,,,,,,,1,001,2020_Jul_12_1533,sonority,2020.1.3,59.934259807664624,
autoConditions/train2Block3.xlsx,autoConditions/train2Block3Test.xlsx,,,,,,,,,,,,,0,2,2,2,,,,,,,,,,,,,,,,,,,,,,,,,,,,,,,,,,,,,,,,,,,,,,,,1,001,2020_Jul_12_1533,sonority,2020.1.3,59.934259807664624,
,,,,,,,,,,,,,,,,,,,,,,,,,,,,,,,,,,,,,,,,,,,,,,,,,,,,,,,95.08667816279922,None,escape,8.399541088496335,95.08667816279922,None,,,,,1,001,2020_Jul_12_1533,sonority,2020.1.3,59.934259807664624,
,,,,,,,,,,,,,,,,,,,,,,,,,,,,,,,,,,,,,,,,,,,,,,,,,,,,,,,,,,,,,None,None,None,None,,,,,,,
