firstAudio,secondAudio,imageLoc,whichAudio,train1blocks.thisRepN,train1blocks.thisTrialN,train1blocks.thisN,train1blocks.thisIndex,train2blocks.thisRepN,train2blocks.thisTrialN,train2blocks.thisN,train2blocks.thisIndex,test1Loop.thisRepN,test1Loop.thisTrialN,test1Loop.thisN,test1Loop.thisIndex,test2Loop.thisRepN,test2Loop.thisTrialN,test2Loop.thisN,test2Loop.thisIndex,instructions.started,instructions.stopped,notice.started,notice.stopped,key_resp_3.keys,key_resp_3.rt,key_resp_3.started,key_resp_3.stopped,test1Instr.started,test1Instr.stopped,skipTest1Instr.keys,skipTest1Instr.rt,skipTest1Instr.started,skipTest1Instr.stopped,oneWarningTest1.started,oneWarningTest1.stopped,twoWarningTest1.started,twoWarningTest1.stopped,test1Audio1.started,test1Audio1.stopped,test1Audio2.started,test1Audio2.stopped,test1Response.keys,test1Response.rt,test1Response.started,test1Response.stopped,test1Image.started,test1Image.stopped,test2Instr.started,test2Instr.stopped,skipTest2Instr.keys,skipTest2Instr.rt,skipTest2Instr.started,skipTest2Instr.stopped,participant,session,date,expName,psychopyVersion,frameRate,
,,,,,,,,,,,,,,,,,,,,12.421113024582155,None,13.830322064924985,None,a,0.7695489535108209,13.830322064924985,None,,,,,,,,,,,,,,,,,,,,,,,,,,,1,001,2020_Jul_12_1539,sonority,2020.1.3,59.968458403179575,
,,,,,,,,,,,,,,,,,,,,,,,,,,,,14.641099424101412,None,a,0.7309707861859351,14.641099424101412,None,,,,,,,,,,,,,,,,,,,,,1,001,2020_Jul_12_1539,sonority,2020.1.3,59.968458403179575,
trainingaudio/20_tatito3.wav,trainingaudio/20_tatito1.wav,pngimages/20_pizza.png,2,,,,,,,,,0,0,0,0,,,,,,,,,,,,,,,,,,,None,None,None,None,15.420742164866533,16.42116852896288,16.42078098015627,17.422110592597164,j,1.7556475677993149,17.422110592597164,None,15.45493518630974,None,,,,,,,1,001,2020_Jul_12_1539,sonority,2020.1.3,59.968458403179575,
trainingaudio/14_pokoto1.wav,trainingaudio/14_pokoto2.wav,pngimages/14_coffee.png,1,,,,,,,,,0,1,1,1,,,,,,,,,,,,,,,,,,,,,,,19.22359576812014,20.224698228063062,20.2231454654946,21.22495007433463,j,1.1401968176942319,21.22495007433463,None,19.22631880408153,None,,,,,,,1,001,2020_Jul_12_1539,sonority,2020.1.3,59.968458403179575,
trainingaudio/24_takopa3.wav,trainingaudio/24_takopa1.wav,pngimages/24_banana.png,2,,,,,,,,,0,2,2,2,,,,,,,,,,,,,,,,,,,,,,,22.458986626414116,23.459187121712603,23.443781681370456,24.44531783030834,j,0.3157374470029026,24.44531783030834,None,22.45703264675103,None,,,,,,,1,001,2020_Jul_12_1539,sonority,2020.1.3,59.968458403179575,
trainingaudio/26_kapako1.wav,trainingaudio/26_kapako2.wav,pngimages/26_pineapple.png,1,,,,,,,,,0,3,3,3,,,,,,,,,,,,,,,,,,,,,,,24.81074972023489,25.8128823711304,25.79741765059298,26.796811407082714,j,0.0759427904849872,26.796811407082714,None,24.8091820810223,None,,,,,,,1,001,2020_Jul_12_1539,sonority,2020.1.3,59.968458403179575,
trainingaudio/19_papipi2.wav,trainingaudio/19_papipi1.wav,pngimages/19_burger.png,2,,,,,,,,,0,4,4,4,,,,,,,,,,,,,,,,,,,,,,,26.930089361884168,27.930939748999663,27.8972480790806,28.897641669143923,j,0.1933786707231775,28.897641669143923,None,26.92084362078458,None,,,,,,,1,001,2020_Jul_12_1539,sonority,2020.1.3,59.968458403179575,
trainingaudio/15_kopota3.wav,trainingaudio/15_kopota1.wav,pngimages/15_barrel.png,1,,,,,,,,,0,5,5,5,,,,,,,,,,,,,,,,,,,,,,,29.16532949001994,30.164951380807906,30.149749833869283,31.150274066836573,j,0.14368906081654131,31.150274066836573,None,29.160690005868673,None,,,,,,,1,001,2020_Jul_12_1539,sonority,2020.1.3,59.968458403179575,
trainingaudio/04_kitoti2.wav,trainingaudio/04_kitoti1.wav,pngimages/04_ladder.png,1,,,,,,,,,0,6,6,6,,,,,,,,,,,,,,,,,,,,,,,31.33376057832502,32.33455644280184,32.31671409705886,33.31887098855805,f,0.16106079006567597,33.31887098855805,None,31.32861105829943,None,,,,,,,1,001,2020_Jul_12_1539,sonority,2020.1.3,59.968458403179575,
trainingaudio/16_kotapi2.wav,trainingaudio/16_kotapi1.wav,pngimages/16_icecream.png,1,,,,,,,,,0,7,7,7,,,,,,,,,,,,,,,,,,,,,,,33.518835495947854,34.51950826914981,34.50312111912062,35.50424759311136,f,0.14233090332709253,35.50424759311136,None,33.51660278625786,None,,,,,,,1,001,2020_Jul_12_1539,sonority,2020.1.3,59.968458403179575,
trainingaudio/25_tapapi1.wav,trainingaudio/25_tapapi2.wav,pngimages/25_apple.png,1,,,,,,,,,0,8,8,8,,,,,,,,,,,,,,,,,,,,,,,35.68676508174976,36.68827887799125,36.67131478480296,37.6722275482025,j,0.26840658334549516,37.6722275482025,None,35.68210921064019,None,,,,,,,1,001,2020_Jul_12_1539,sonority,2020.1.3,59.968458403179575,
trainingaudio/06_titoka2.wav,trainingaudio/06_titoka3.wav,pngimages/06_tent.png,2,,,,,,,,,0,9,9,9,,,,,,,,,,,,,,,,,,,,,,,37.98932964706327,38.9902391632786,38.97332566581899,39.973849521251395,j,0.03334980842191726,39.973849521251395,None,37.989060356630944,None,,,,,,,1,001,2020_Jul_12_1539,sonority,2020.1.3,59.968458403179575,
trainingaudio/18_popata2.wav,trainingaudio/18_popata1.wav,pngimages/18_donut.png,1,,,,,,,,,0,10,10,10,,,,,,,,,,,,,,,,,,,,,,,40.04246845587622,41.040682801627554,41.04175951053621,42.04284747131169,f,0.03207434108480811,42.04284747131169,None,40.04506953328382,None,,,,,,,1,001,2020_Jul_12_1539,sonority,2020.1.3,59.968458403179575,
trainingaudio/12_pokika1.wav,trainingaudio/12_pokika3.wav,pngimages/12_pie.png,2,,,,,,,,,0,11,11,11,,,,,,,,,,,,,,,,,,,,,,,42.19453640825813,43.21021159237716,43.177542410686144,44.178975857794285,j,0.1444208121392876,44.178975857794285,None,42.18920678237919,None,,,,,,,1,001,2020_Jul_12_1539,sonority,2020.1.3,59.968458403179575,
trainingaudio/13_kopopi1.wav,trainingaudio/13_kopopi2.wav,pngimages/13_toast.png,1,,,,,,,,,0,12,12,12,,,,,,,,,,,,,,,,,,,,,,,44.36146857708226,45.36227010528091,45.361874249775425,46.36176263692323,f,0.021005187649279833,46.36176263692323,None,44.36475647368934,None,,,,,,,1,001,2020_Jul_12_1539,sonority,2020.1.3,59.968458403179575,
trainingaudio/23_patoko2.wav,trainingaudio/23_patoko1.wav,pngimages/23_lemon.png,2,,,,,,,,,0,13,13,13,,,,,,,,,,,,,,,,,,,,,,,46.42981671101879,47.43062125972938,47.43017631875118,48.43030824547168,j,0.025403246749192476,48.43030824547168,None,46.431023760698736,None,,,,,,,1,001,2020_Jul_12_1539,sonority,2020.1.3,59.968458403179575,
trainingaudio/08_tipako2.wav,trainingaudio/08_tipako1.wav,pngimages/08_bell.png,1,,,,,,,,,0,14,14,14,,,,,,,,,,,,,,,,,,,,,,,48.49781860343646,49.49799523560796,49.498570517415644,50.498669594642706,f,0.07653974543791264,50.498669594642706,None,48.50494989310391,None,,,,,,,1,001,2020_Jul_12_1539,sonority,2020.1.3,59.968458403179575,
trainingaudio/09_tipata2.wav,trainingaudio/09_tipata3.wav,pngimages/09_plane.png,1,,,,,,,,,0,15,15,15,,,,,,,,,,,,,,,,,,,,,,,50.632960975787135,51.63279038493056,51.61717198906699,52.61811118305195,f,0.07576495001558214,52.61811118305195,None,50.63184454548173,None,,,,,,,1,001,2020_Jul_12_1539,sonority,2020.1.3,59.968458403179575,
trainingaudio/21_papika1.wav,trainingaudio/21_papika3.wav,pngimages/21_cheese.png,1,,,,,,,,,0,16,16,16,,,,,,,,,,,,,,,,,,,,,,,52.76722434062976,53.76815568096936,53.751634867407844,54.7530524560716,j,0.3731066691689193,54.7530524560716,None,52.762199724209495,None,,,,,,,1,001,2020_Jul_12_1539,sonority,2020.1.3,59.968458403179575,
trainingaudio/10_tokiti1.wav,trainingaudio/10_tokiti3.wav,pngimages/10_backpack.png,1,,,,,,,,,0,17,17,17,,,,,,,,,,,,,,,,,,,,,,,55.17097311201505,56.170274889911525,56.17097515101777,57.17326117516495,j,0.1282898128265515,57.17326117516495,None,55.17602733068634,None,,,,,,,1,001,2020_Jul_12_1539,sonority,2020.1.3,59.968458403179575,
trainingaudio/05_titopo1.wav,trainingaudio/05_titopo2.wav,pngimages/05_megaphone.png,2,,,,,,,,,0,18,18,18,,,,,,,,,,,,,,,,,,,,,,,57.356779252330305,58.356238254811615,58.33979446768062,59.339228247758,f,0.1514264428988099,59.339228247758,None,57.3489460402634,None,,,,,,,1,001,2020_Jul_12_1539,sonority,2020.1.3,59.968458403179575,
trainingaudio/07_pitapi2.wav,trainingaudio/07_pitapi3.wav,pngimages/07_suitcase.png,1,,,,,,,,,0,19,19,19,,,,,,,,,,,,,,,,,,,,,,,59.52347973759751,60.524423236143775,60.52527679480845,61.54442103859037,j,0.1906525386730209,61.52502434444614,None,59.52591052616481,None,,,,,,,1,001,2020_Jul_12_1539,sonority,2020.1.3,59.968458403179575,
trainingaudio/17_kotako1.wav,trainingaudio/17_kotako2.wav,pngimages/17_cracker.png,2,,,,,,,,,0,20,20,20,,,,,,,,,,,,,,,,,,,,,,,61.75852782817091,62.759861745056696,62.74334055384388,63.74433827295434,f,0.1646338355494663,63.74433827295434,None,61.7594615095295,None,,,,,,,1,001,2020_Jul_12_1539,sonority,2020.1.3,59.968458403179575,
trainingaudio/11_tokiko2.wav,trainingaudio/11_tokiko1.wav,pngimages/11_compass.png,2,,,,,,,,,0,21,21,21,,,,,,,,,,,,,,,,,,,,,,,63.94431977150961,64.9460735579487,64.94550212741596,65.94582020130474,j,0.1388703768607229,65.94582020130474,None,63.947955042123795,None,,,,,,,1,001,2020_Jul_12_1539,sonority,2020.1.3,59.968458403179575,
trainingaudio/02_pitito3.wav,trainingaudio/02_pitito2.wav,pngimages/02_pallet.png,1,,,,,,,,,0,22,22,22,,,,,,,,,,,,,,,,,,,,,,,66.1283789972309,67.13044806360267,67.13041732845595,68.13005386933219,f,0.03437003120779991,68.13005386933219,None,66.13858454837464,None,,,,,,,1,001,2020_Jul_12_1539,sonority,2020.1.3,59.968458403179575,
trainingaudio/03_kikita2.wav,trainingaudio/03_kikita3.wav,pngimages/03_box.png,2,,,,,,,,,0,23,23,23,,,,,,,,,,,,,,,,,,,,,,,68.21381250318372,69.21519829961471,69.19912001049379,70.19851263437886,j,0.20913888583891094,70.19851263437886,None,68.20855099277105,None,,,,,,,1,001,2020_Jul_12_1539,sonority,2020.1.3,59.968458403179575,
trainingaudio/01_kitipi1.wav,trainingaudio/01_kitipi3.wav,pngimages/01_gift.png,1,,,,,,,,,0,24,24,24,,,,,,,,,,,,,,,,,,,,,,,70.48370018431451,71.48428717115894,71.48430740950862,72.48444462229963,f,0.41020358772948384,72.48444462229963,None,70.48665497929323,None,,,,,,,1,001,2020_Jul_12_1539,sonority,2020.1.3,59.968458403179575,
trainingaudio/27_pakapa1.wav,trainingaudio/27_pakapa2.wav,pngimages/27_kiwi.png,1,,,,,,,,,0,25,25,25,,,,,,,,,,,,,,,,,,,,,,,72.95047984822885,73.95254793285858,73.93587155606365,74.93786457763053,j,0.2389420794788748,74.93786457763053,None,72.94982142315712,None,,,,,,,1,001,2020_Jul_12_1539,sonority,2020.1.3,59.968458403179575,
trainingaudio/22_kakoki2.wav,trainingaudio/22_kakoki1.wav,pngimages/22_egg.png,2,,,,,,,,,0,26,26,26,,,,,,,,,,,,,,,,,,,,,,,75.27023143036058,76.27156806585845,76.25345348451519,77.25547406938858,j,0.11269120220094919,77.25547406938858,None,75.27186975278892,None,,,,,,,1,001,2020_Jul_12_1539,sonority,2020.1.3,59.968458403179575,
trainingaudio/12_pokika3.wav,trainingaudio/12_pokika2.wav,pngimages/12_pie.png,1,,,,,,,,,0,27,27,27,,,,,,,,,,,,,,,,,,,,,,,77.4553735574591,78.4559293561615,78.43937644817633,79.44031262164935,f,0.0960485809482634,79.44031262164935,None,77.45551439502742,None,,,,,,,1,001,2020_Jul_12_1539,sonority,2020.1.3,59.968458403179575,
trainingaudio/26_kapako1.wav,trainingaudio/26_kapako3.wav,pngimages/26_pineapple.png,1,,,,,,,,,0,28,28,28,,,,,,,,,,,,,,,,,,,,,,,79.5903649730957,80.5910307232989,80.57488900063326,81.57402977824677,j,0.4172477318206802,81.57402977824677,None,79.58633777371142,None,,,,,,,1,001,2020_Jul_12_1539,sonority,2020.1.3,59.968458403179575,
trainingaudio/03_kikita3.wav,trainingaudio/03_kikita2.wav,pngimages/03_box.png,1,,,,,,,,,0,29,29,29,,,,,,,,,,,,,,,,,,,,,,,82.02568273178767,83.02651031303685,83.00983695687027,84.01143200846855,f,0.2874694961355999,84.01143200846855,None,82.0206887749955,None,,,,,,,1,001,2020_Jul_12_1539,sonority,2020.1.3,59.968458403179575,
trainingaudio/25_tapapi3.wav,trainingaudio/25_tapapi1.wav,pngimages/25_apple.png,2,,,,,,,,,0,30,30,30,,,,,,,,,,,,,,,,,,,,,,,84.3456392647,85.36081906291656,85.34406905797077,86.34635357174557,j,0.3196438961895183,86.34635357174557,None,84.34959359106142,None,,,,,,,1,001,2020_Jul_12_1539,sonority,2020.1.3,59.968458403179575,
trainingaudio/16_kotapi2.wav,trainingaudio/16_kotapi1.wav,pngimages/16_icecream.png,1,,,,,,,,,0,31,31,31,,,,,,,,,,,,,,,,,,,,,,,86.68006370532093,87.68021337827668,87.67941879761638,88.6810606692452,j,0.1298329847631976,88.6810606692452,None,86.68767437140923,None,,,,,,,1,001,2020_Jul_12_1539,sonority,2020.1.3,59.968458403179575,
trainingaudio/11_tokiko2.wav,trainingaudio/11_tokiko1.wav,pngimages/11_compass.png,2,,,,,,,,,0,32,32,32,,,,,,,,,,,,,,,,,,,,,,,88.84810618767514,89.84898663021158,89.83225210594246,90.833607393899,f,0.11341162596363574,90.833607393899,None,88.84579494118225,None,,,,,,,1,001,2020_Jul_12_1539,sonority,2020.1.3,59.968458403179575,
trainingaudio/19_papipi2.wav,trainingaudio/19_papipi1.wav,pngimages/19_burger.png,2,,,,,,,,,0,33,33,33,,,,,,,,,,,,,,,,,,,,,,,90.9830678500235,91.98409932479262,91.9672590780654,92.96697415574454,j,0.15672956279013306,92.96697415574454,None,90.9812349982094,None,,,,,,,1,001,2020_Jul_12_1539,sonority,2020.1.3,59.968458403179575,
trainingaudio/20_tatito3.wav,trainingaudio/20_tatito1.wav,pngimages/20_pizza.png,2,,,,,,,,,0,34,34,34,,,,,,,,,,,,,,,,,,,,,,,93.18485131432534,94.1857764624292,94.16928547773277,95.16910287970677,f,0.1447319386061281,95.15325166762341,None,93.1780488974182,None,,,,,,,1,001,2020_Jul_12_1539,sonority,2020.1.3,59.968458403179575,
trainingaudio/04_kitoti2.wav,trainingaudio/04_kitoti3.wav,pngimages/04_ladder.png,1,,,,,,,,,0,35,35,35,,,,,,,,,,,,,,,,,,,,,,,95.33579536029137,96.3377307630144,96.33753766830777,97.33904474368319,j,0.05448941478971392,97.33904474368319,None,95.34263175958768,None,,,,,,,1,001,2020_Jul_12_1539,sonority,2020.1.3,59.968458403179575,
trainingaudio/13_kopopi2.wav,trainingaudio/13_kopopi1.wav,pngimages/13_toast.png,2,,,,,,,,,0,36,36,36,,,,,,,,,,,,,,,,,,,,,,,97.4382069299696,98.43841414619237,98.42162827100837,99.4231629098067,f,0.1641697889426723,99.4231629098067,None,97.43335267796647,None,,,,,,,1,001,2020_Jul_12_1539,sonority,2020.1.3,59.968458403179575,
trainingaudio/07_pitapi1.wav,trainingaudio/07_pitapi2.wav,pngimages/07_suitcase.png,2,,,,,,,,,0,37,37,37,,,,,,,,,,,,,,,,,,,,,,,99.65691831526347,100.65832314174622,100.6414103994728,101.6408000026131,j,0.21329982427414507,101.6408000026131,None,99.65119328687433,None,,,,,,,1,001,2020_Jul_12_1539,sonority,2020.1.3,59.968458403179575,
trainingaudio/10_tokiti1.wav,trainingaudio/10_tokiti2.wav,pngimages/10_backpack.png,1,,,,,,,,,0,38,38,38,,,,,,,,,,,,,,,,,,,,,,,101.8920475101564,102.89341314369813,102.89210580860963,103.89375296630897,f,0.13827644265256822,103.89375296630897,None,101.89480226289015,None,,,,,,,1,001,2020_Jul_12_1539,sonority,2020.1.3,59.968458403179575,
trainingaudio/08_tipako1.wav,trainingaudio/08_tipako2.wav,pngimages/08_bell.png,2,,,,,,,,,0,39,39,39,,,,,,,,,,,,,,,,,,,,,,,104.07908735740929,105.07873311126605,105.06209940103581,106.06262552191038,j,0.5399927730904892,106.06262552191038,None,104.07385665748734,None,,,,,,,1,001,2020_Jul_12_1539,sonority,2020.1.3,59.968458403179575,
trainingaudio/14_pokoto1.wav,trainingaudio/14_pokoto2.wav,pngimages/14_coffee.png,1,,,,,,,,,0,40,40,40,,,,,,,,,,,,,,,,,,,,,,,106.62939314102987,107.62929210043512,107.63002105756895,108.63080808671657,f,0.5038103548577055,108.63080808671657,None,106.63851073139813,None,,,,,,,1,001,2020_Jul_12_1539,sonority,2020.1.3,59.968458403179575,
trainingaudio/02_pitito3.wav,trainingaudio/02_pitito1.wav,pngimages/02_pallet.png,1,,,,,,,,,0,41,41,41,,,,,,,,,,,,,,,,,,,,,,,109.18163863187655,110.18240768811665,110.18143451180076,111.1826032748213,None,,111.16642319003586,119.1722666277783,109.18283510941546,None,,,,,,,1,001,2020_Jul_12_1539,sonority,2020.1.3,59.968458403179575,
trainingaudio/09_tipata2.wav,trainingaudio/09_tipata3.wav,pngimages/09_plane.png,1,,,,,,,,,0,42,42,42,,,,,,,,,,,,,,,,,,,,,,,119.22234695804072,120.22399139718618,120.22280828597722,121.22474127227906,None,,121.20816095196642,129.2148146777181,119.22443052346352,119.22443052346352,,,,,,,1,001,2020_Jul_12_1539,sonority,2020.1.3,59.968458403179575,
trainingaudio/05_titopo2.wav,trainingaudio/05_titopo3.wav,pngimages/05_megaphone.png,1,,,,,,,,,0,43,43,43,,,,,,,,,,,,,,,,,,,,,,,129.24820156455974,130.24912278575357,130.24841504859506,131.24975145747885,j,0.13491333206184208,131.24975145747885,None,129.24980318604503,129.24980318604503,,,,,,,1,001,2020_Jul_12_1539,sonority,2020.1.3,59.968458403179575,
trainingaudio/27_pakapa2.wav,trainingaudio/27_pakapa1.wav,pngimages/27_kiwi.png,2,,,,,,,,,0,44,44,44,,,,,,,,,,,,,,,,,,,,,,,131.43246770454573,132.43430871213786,132.41669593543048,133.41867913980968,f,0.11786858760751784,133.41867913980968,None,131.42633081111126,None,,,,,,,1,001,2020_Jul_12_1539,sonority,2020.1.3,59.968458403179575,
trainingaudio/17_kotako1.wav,trainingaudio/17_kotako2.wav,pngimages/17_cracker.png,2,,,,,,,,,0,45,45,45,,,,,,,,,,,,,,,,,,,,,,,133.56834764292,134.57130553398747,134.554355033685,135.55329040740617,j,0.19438039208762348,135.55329040740617,None,133.56194870860782,None,,,,,,,1,001,2020_Jul_12_1539,sonority,2020.1.3,59.968458403179575,
trainingaudio/22_kakoki1.wav,trainingaudio/22_kakoki2.wav,pngimages/22_egg.png,1,,,,,,,,,0,46,46,46,,,,,,,,,,,,,,,,,,,,,,,135.8202151378384,136.82128580543213,136.8205663632951,137.8223211314762,f,0.20444367080926895,137.8223211314762,None,135.8241259668721,None,,,,,,,1,001,2020_Jul_12_1539,sonority,2020.1.3,59.968458403179575,
trainingaudio/24_takopa3.wav,trainingaudio/24_takopa1.wav,pngimages/24_banana.png,2,,,,,,,,,0,47,47,47,,,,,,,,,,,,,,,,,,,,,,,138.12322834442602,139.1231018549297,139.12376435789048,140.14125026750844,j,0.14167391299270093,140.12371315795463,None,138.13029778643977,None,,,,,,,1,001,2020_Jul_12_1539,sonority,2020.1.3,59.968458403179575,
trainingaudio/23_patoko2.wav,trainingaudio/23_patoko1.wav,pngimages/23_lemon.png,2,,,,,,,,,0,48,48,48,,,,,,,,,,,,,,,,,,,,,,,140.29010410270422,141.2915194259258,141.29107939348324,142.29224173759576,f,0.1445725994417444,142.29224173759576,None,140.297201636713,None,,,,,,,1,001,2020_Jul_12_1539,sonority,2020.1.3,59.968458403179575,
trainingaudio/15_kopota3.wav,trainingaudio/15_kopota2.wav,pngimages/15_barrel.png,1,,,,,,,,,0,49,49,49,,,,,,,,,,,,,,,,,,,,,,,142.52695038315142,143.52572060318198,143.51011617773912,144.51132307644002,j,0.1815177306998521,144.51132307644002,None,142.52610120445024,None,,,,,,,1,001,2020_Jul_12_1539,sonority,2020.1.3,59.968458403179575,
trainingaudio/06_titoka2.wav,trainingaudio/06_titoka3.wav,pngimages/06_tent.png,2,,,,,,,,,0,50,50,50,,,,,,,,,,,,,,,,,,,,,,,144.72799854704647,145.72874985693488,145.69561964938185,146.69487823208328,j,0.20342004974372685,146.69487823208328,None,144.72010326071177,None,,,,,,,1,001,2020_Jul_12_1539,sonority,2020.1.3,59.968458403179575,
trainingaudio/18_popata2.wav,trainingaudio/18_popata3.wav,pngimages/18_donut.png,1,,,,,,,,,0,51,51,51,,,,,,,,,,,,,,,,,,,,,,,146.92968021556737,147.93101148935966,147.93046762224986,148.9318716180278,f,0.36786849319469184,148.9318716180278,None,146.93136339448392,None,,,,,,,1,001,2020_Jul_12_1539,sonority,2020.1.3,59.968458403179575,
trainingaudio/21_papika1.wav,trainingaudio/21_papika2.wav,pngimages/21_cheese.png,1,,,,,,,,,0,52,52,52,,,,,,,,,,,,,,,,,,,,,,,149.36560180111556,150.3656864546938,150.34842671583175,151.35001346073113,j,0.2197179397335276,151.35001346073113,None,149.3614651033422,None,,,,,,,1,001,2020_Jul_12_1539,sonority,2020.1.3,59.968458403179575,
trainingaudio/01_kitipi1.wav,trainingaudio/01_kitipi2.wav,pngimages/01_gift.png,1,,,,,,,,,0,53,53,53,,,,,,,,,,,,,,,,,,,,,,,151.61678066444586,152.61794995621312,152.6167305973475,153.6185367164435,f,0.2261149106780067,153.6185367164435,None,151.61909100483172,None,,,,,,,1,001,2020_Jul_12_1539,sonority,2020.1.3,59.968458403179575,
,,,,,,,,,,,,,,,,,,,,,,,,,,,,,,,,,,,,,,,,,,,,,,,,153.87030483211856,None,escape,5.781333244754933,153.87030483211856,None,1,001,2020_Jul_12_1539,sonority,2020.1.3,59.968458403179575,
