condFiles,testFiles,audio,imageLoc,audioTrue,imageTrue,audioFalse,imageFalse,truePos,falsePos,firstAudio,secondAudio,whichAudio,train1blocks.thisRepN,train1blocks.thisTrialN,train1blocks.thisN,train1blocks.thisIndex,blockwords1.thisRepN,blockwords1.thisTrialN,blockwords1.thisN,blockwords1.thisIndex,blocktest1.thisRepN,blocktest1.thisTrialN,blocktest1.thisN,blocktest1.thisIndex,train2blocks.thisRepN,train2blocks.thisTrialN,train2blocks.thisN,train2blocks.thisIndex,blockloop2.thisRepN,blockloop2.thisTrialN,blockloop2.thisN,blockloop2.thisIndex,blocktest2.thisRepN,blocktest2.thisTrialN,blocktest2.thisN,blocktest2.thisIndex,test1Loop.thisRepN,test1Loop.thisTrialN,test1Loop.thisN,test1Loop.thisIndex,test2Loop.thisRepN,test2Loop.thisTrialN,test2Loop.thisN,test2Loop.thisIndex,test3Loop.thisRepN,test3Loop.thisTrialN,test3Loop.thisN,test3Loop.thisIndex,postTestLoop.thisRepN,postTestLoop.thisTrialN,postTestLoop.thisN,postTestLoop.thisIndex,instructions.started,instructions.stopped,stimulitrain1.started,stimulitrain1.stopped,imagetrain1.started,imagetrain1.stopped,stimulitest1.started,stimulitest1.stopped,correct.started,correct.stopped,incorrect.started,incorrect.stopped,train1Response.keys,train1Response.rt,train1Response.started,train1Response.stopped,notice.started,notice.stopped,key_resp_3.keys,key_resp_3.rt,key_resp_3.started,key_resp_3.stopped,stimulitrain2.started,stimulitrain2.stopped,imagetrain2.started,imagetrain2.stopped,stimulitest2.started,stimulitest2.stopped,train2Response.keys,train2Response.rt,train2Response.started,train2Response.stopped,correct2.started,correct2.stopped,incorrect2.started,incorrect2.stopped,test1Instr.started,test1Instr.stopped,skipTest1Instr.keys,skipTest1Instr.rt,skipTest1Instr.started,skipTest1Instr.stopped,oneWarningTest1.started,oneWarningTest1.stopped,twoWarningTest1.started,twoWarningTest1.stopped,threeWarningTest1.started,threeWarningTest1.stopped,fourWarningTest1.started,fourWarningTest1.stopped,test1Audio1.started,test1Audio1.stopped,test1Audio1Sound.started,test1Audio1Sound.stopped,test1Audio1Mute.started,test1Audio1Mute.stopped,test1Audio2.started,test1Audio2.stopped,test1Audio2Mute1.started,test1Audio2Mute1.stopped,test1Audio2Sound.started,test1Audio2Sound.stopped,test1Audio2Mute2.started,test1Audio2Mute2.stopped,test1Response.keys,test1Response.rt,test1Response.started,test1Response.stopped,test1Image.started,test1Image.stopped,test1F.started,test1F.stopped,test1J.started,test1J.stopped,test2Instr.started,test2Instr.stopped,skipTest2Instr.keys,skipTest2Instr.rt,skipTest2Instr.started,skipTest2Instr.stopped,test3Instr.started,test3Instr.stopped,skipTest3Instr.keys,skipTest3Instr.rt,skipTest3Instr.started,skipTest3Instr.stopped,postTestText.started,postTestText.stopped,text.started,text.stopped,quit.keys,quit.rt,quit.started,quit.stopped,participant,session,date,expName,psychopyVersion,frameRate
aoiConditions/train1Block1.xlsx,aoiConditions/train1Block1Test.xlsx,trainingaudio/03_kikita3.wav,pngimages/03_box.png,,,,,,,,,,0,0,0,0,0,0,0,0,,,,,,,,,,,,,,,,,,,,,,,,,,,,,,,,,11.3524875,None,12.91944133,None,12.94061523,None,,,,,,,,,,,,,,,,,,,,,,,,,,,,,,,,,,,,,,,,,,,,,,,,,,,,,,,,,,,,,,,,,,,,,,,,,,,,,,,,,,,,,,,,,1,1,2020_Jul_20_2230,sonority,2020.1.3,60.01110294
aoiConditions/train1Block1.xlsx,aoiConditions/train1Block1Test.xlsx,trainingaudio/07_pitapi2.wav,pngimages/07_suitcase.png,,,,,,,,,,0,0,0,0,0,1,1,1,,,,,,,,,,,,,,,,,,,,,,,,,,,,,,,,,,,13.83632735,None,13.83358015,None,,,,,,,,,,,,,,,,,,,,,,,,,,,,,,,,,,,,,,,,,,,,,,,,,,,,,,,,,,,,,,,,,,,,,,,,,,,,,,,,,,,,,,,,,1,1,2020_Jul_20_2230,sonority,2020.1.3,60.01110294
aoiConditions/train1Block1.xlsx,aoiConditions/train1Block1Test.xlsx,trainingaudio/06_titoka3.wav,pngimages/06_tent.png,,,,,,,,,,0,0,0,0,0,2,2,2,,,,,,,,,,,,,,,,,,,,,,,,,,,,,,,,,,,14.83721919,None,14.83364622,None,,,,,,,,,,,,,,,,,,,,,,,,,,,,,,,,,,,,,,,,,,,,,,,,,,,,,,,,,,,,,,,,,,,,,,,,,,,,,,,,,,,,,,,,,1,1,2020_Jul_20_2230,sonority,2020.1.3,60.01110294
aoiConditions/train1Block1.xlsx,aoiConditions/train1Block1Test.xlsx,trainingaudio/11_tokiko1.wav,pngimages/11_compass.png,,,,,,,,,,0,0,0,0,0,3,3,3,,,,,,,,,,,,,,,,,,,,,,,,,,,,,,,,,,,15.83800532,None,15.83650942,None,,,,,,,,,,,,,,,,,,,,,,,,,,,,,,,,,,,,,,,,,,,,,,,,,,,,,,,,,,,,,,,,,,,,,,,,,,,,,,,,,,,,,,,,,1,1,2020_Jul_20_2230,sonority,2020.1.3,60.01110294
aoiConditions/train1Block1.xlsx,aoiConditions/train1Block1Test.xlsx,trainingaudio/25_tapapi1.wav,pngimages/25_apple.png,,,,,,,,,,0,0,0,0,0,4,4,4,,,,,,,,,,,,,,,,,,,,,,,,,,,,,,,,,,,16.83880994,None,16.83427489,None,,,,,,,,,,,,,,,,,,,,,,,,,,,,,,,,,,,,,,,,,,,,,,,,,,,,,,,,,,,,,,,,,,,,,,,,,,,,,,,,,,,,,,,,,1,1,2020_Jul_20_2230,sonority,2020.1.3,60.01110294
aoiConditions/train1Block1.xlsx,aoiConditions/train1Block1Test.xlsx,trainingaudio/09_tipata2.wav,pngimages/09_plane.png,,,,,,,,,,0,0,0,0,0,5,5,5,,,,,,,,,,,,,,,,,,,,,,,,,,,,,,,,,,,17.85634268,None,17.85230098,None,,,,,,,,,,,,,,,,,,,,,,,,,,,,,,,,,,,,,,,,,,,,,,,,,,,,,,,,,,,,,,,,,,,,,,,,,,,,,,,,,,,,,,,,,1,1,2020_Jul_20_2230,sonority,2020.1.3,60.01110294
aoiConditions/train1Block1.xlsx,aoiConditions/train1Block1Test.xlsx,,,trainingaudio/06_titoka3.wav,pngimages/06_tent.png,trainingaudio/07_pitapi2.wav,pngimages/07_suitcase.png,-0.5,0.5,,,,0,0,0,0,,,,,0,0,0,0,,,,,,,,,,,,,,,,,,,,,,,,,,,,,,,,,,,18.87393243,None,18.87402093,None,18.87402093,None,f,1.447752639,19.85858241,None,,,,,,,,,,,,,,,,,,,,,,,,,,,,,,,,,,,,,,,,,,,,,,,,,,,,,,,,,,,,,,,,,,,,,,,,,,,,,,,1,1,2020_Jul_20_2230,sonority,2020.1.3,60.01110294
aoiConditions/train1Block1.xlsx,aoiConditions/train1Block1Test.xlsx,,,trainingaudio/03_kikita3.wav,pngimages/03_box.png,trainingaudio/09_tipata2.wav,pngimages/09_plane.png,0.5,-0.5,,,,0,0,0,0,,,,,0,1,1,1,,,,,,,,,,,,,,,,,,,,,,,,,,,,,,,,,,,21.36005165,None,21.35545038,None,21.35545038,None,j,0.987869463,22.34402403,None,,,,,,,,,,,,,,,,,,,,,,,,,,,,,,,,,,,,,,,,,,,,,,,,,,,,,,,,,,,,,,,,,,,,,,,,,,,,,,,1,1,2020_Jul_20_2230,sonority,2020.1.3,60.01110294
aoiConditions/train1Block1.xlsx,aoiConditions/train1Block1Test.xlsx,,,trainingaudio/25_tapapi1.wav,pngimages/25_apple.png,trainingaudio/11_tokiko1.wav,pngimages/11_compass.png,0.5,-0.5,,,,0,0,0,0,,,,,0,2,2,2,,,,,,,,,,,,,,,,,,,,,,,,,,,,,,,,,,,23.39521348,None,23.39584812,None,23.39584812,None,j,0.672890456,24.39572994,None,,,,,,,,,,,,,,,,,,,,,,,,,,,,,,,,,,,,,,,,,,,,,,,,,,,,,,,,,,,,,,,,,,,,,,,,,,,,,,,1,1,2020_Jul_20_2230,sonority,2020.1.3,60.01110294
aoiConditions/train1Block1.xlsx,aoiConditions/train1Block1Test.xlsx,,,,,,,,,,,,0,0,0,0,,,,,,,,,,,,,,,,,,,,,,,,,,,,,,,,,,,,,,,,,,,,,,,,,,,,,,,,,,,,,,,,,,,,,,,,,,,,,,,,,,,,,,,,,,,,,,,,,,,,,,,,,,,,,,,,,,,,,,,,,,,,,,,,,,,1,1,2020_Jul_20_2230,sonority,2020.1.3,60.01110294
aoiConditions/train1Block2.xlsx,aoiConditions/train1Block2Test.xlsx,trainingaudio/22_kakoki1.wav,pngimages/22_egg.png,,,,,,,,,,0,1,1,1,0,0,0,0,,,,,,,,,,,,,,,,,,,,,,,,,,,,,,,,,,,25.14646569,None,25.15023599,None,,,,,,,,,,,,,,,,,,,,,,,,,,,,,,,,,,,,,,,,,,,,,,,,,,,,,,,,,,,,,,,,,,,,,,,,,,,,,,,,,,,,,,,,,1,1,2020_Jul_20_2230,sonority,2020.1.3,60.01110294
aoiConditions/train1Block2.xlsx,aoiConditions/train1Block2Test.xlsx,trainingaudio/01_kitipi1.wav,pngimages/01_gift.png,,,,,,,,,,0,1,1,1,0,1,1,1,,,,,,,,,,,,,,,,,,,,,,,,,,,,,,,,,,,26.17982578,None,26.18376138,26.18376138,,,,,,,,,,,,,,,,,,,,,,,,,,,,,,,,,,,,,,,,,,,,,,,,,,,,,,,,,,,,,,,,,,,,,,,,,,,,,,,,,,,,,,,,,1,1,2020_Jul_20_2230,sonority,2020.1.3,60.01110294
aoiConditions/train1Block2.xlsx,aoiConditions/train1Block2Test.xlsx,trainingaudio/20_tatito1.wav,pngimages/20_pizza.png,,,,,,,,,,0,1,1,1,0,2,2,2,,,,,,,,,,,,,,,,,,,,,,,,,,,,,,,,,,,27.23071249,None,27.22458995,27.22458995,,,,,,,,,,,,,,,,,,,,,,,,,,,,,,,,,,,,,,,,,,,,,,,,,,,,,,,,,,,,,,,,,,,,,,,,,,,,,,,,,,,,,,,,,1,1,2020_Jul_20_2230,sonority,2020.1.3,60.01110294
aoiConditions/train1Block2.xlsx,aoiConditions/train1Block2Test.xlsx,trainingaudio/21_papika1.wav,pngimages/21_cheese.png,,,,,,,,,,0,1,1,1,0,3,3,3,,,,,,,,,,,,,,,,,,,,,,,,,,,,,,,,,,,28.26491905,None,28.26364954,28.26364954,,,,,,,,,,,,,,,,,,,,,,,,,,,,,,,,,,,,,,,,,,,,,,,,,,,,,,,,,,,,,,,,,,,,,,,,,,,,,,,,,,,,,,,,,1,1,2020_Jul_20_2230,sonority,2020.1.3,60.01110294
aoiConditions/train1Block2.xlsx,aoiConditions/train1Block2Test.xlsx,trainingaudio/18_popata2.wav,pngimages/18_donut.png,,,,,,,,,,0,1,1,1,0,4,4,4,,,,,,,,,,,,,,,,,,,,,,,,,,,,,,,,,,,29.28243449,None,29.28265318,29.28265318,,,,,,,,,,,,,,,,,,,,,,,,,,,,,,,,,,,,,,,,,,,,,,,,,,,,,,,,,,,,,,,,,,,,,,,,,,,,,,,,,,,,,,,,,1,1,2020_Jul_20_2230,sonority,2020.1.3,60.01110294
aoiConditions/train1Block2.xlsx,aoiConditions/train1Block2Test.xlsx,trainingaudio/10_tokiti1.wav,pngimages/10_backpack.png,,,,,,,,,,0,1,1,1,0,5,5,5,,,,,,,,,,,,,,,,,,,,,,,,,,,,,,,,,,,30.30004033,None,30.29994525,30.29994525,,,,,,,,,,,,,,,,,,,,,,,,,,,,,,,,,,,,,,,,,,,,,,,,,,,,,,,,,,,,,,,,,,,,,,,,,,,,,,,,,,,,,,,,,1,1,2020_Jul_20_2230,sonority,2020.1.3,60.01110294
aoiConditions/train1Block2.xlsx,aoiConditions/train1Block2Test.xlsx,,,trainingaudio/20_tatito1.wav,pngimages/20_pizza.png,trainingaudio/01_kitipi1.wav,pngimages/01_gift.png,0.5,-0.5,,,,0,1,1,1,,,,,0,0,0,0,,,,,,,,,,,,,,,,,,,,,,,,,,,,,,,,,,,31.35080863,None,31.34373782,None,31.34373782,None,f,0.200346242,32.33546314,None,,,,,,,,,,,,,,,,,,,,,,,,,,,,,,,,,,,,,,,,,,,,,,,,,,,,,,,,,,,,,,,,,,,,,,,,,,,,,,,1,1,2020_Jul_20_2230,sonority,2020.1.3,60.01110294
aoiConditions/train1Block2.xlsx,aoiConditions/train1Block2Test.xlsx,,,trainingaudio/22_kakoki1.wav,pngimages/22_egg.png,trainingaudio/10_tokiti1.wav,pngimages/10_backpack.png,-0.5,0.5,,,,0,1,1,1,,,,,0,1,1,1,,,,,,,,,,,,,,,,,,,,,,,,,,,,,,,,,,,32.5859503,None,32.58161635,None,32.58161635,None,j,1.333528794,33.56988944,None,,,,,,,,,,,,,,,,,,,,,,,,,,,,,,,,,,,,,,,,,,,,,,,,,,,,,,,,,,,,,,,,,,,,,,,,,,,,,,,1,1,2020_Jul_20_2230,sonority,2020.1.3,60.01110294
aoiConditions/train1Block2.xlsx,aoiConditions/train1Block2Test.xlsx,,,trainingaudio/18_popata2.wav,pngimages/18_donut.png,trainingaudio/21_papika1.wav,pngimages/21_cheese.png,-0.5,0.5,,,,0,1,1,1,,,,,0,2,2,2,,,,,,,,,,,,,,,,,,,,,,,,,,,,,,,,,,,34.95467188,None,34.95526952,None,34.95526952,None,f,0.657887662,35.93875225,None,,,,,,,,,,,,,,,,,,,,,,,,,,,,,,,,,,,,,,,,,,,,,,,,,,,,,,,,,,,,,,,,,,,,,,,,,,,,,,,1,1,2020_Jul_20_2230,sonority,2020.1.3,60.01110294
aoiConditions/train1Block2.xlsx,aoiConditions/train1Block2Test.xlsx,,,,,,,,,,,,0,1,1,1,,,,,,,,,,,,,,,,,,,,,,,,,,,,,,,,,,,,,,,,,,,,,,,,,,,,,,,,,,,,,,,,,,,,,,,,,,,,,,,,,,,,,,,,,,,,,,,,,,,,,,,,,,,,,,,,,,,,,,,,,,,,,,,,,,,1,1,2020_Jul_20_2230,sonority,2020.1.3,60.01110294
aoiConditions/train1Block3.xlsx,aoiConditions/train1Block3Test.xlsx,trainingaudio/17_kotako2.wav,pngimages/17_cracker.png,,,,,,,,,,0,2,2,2,0,0,0,0,,,,,,,,,,,,,,,,,,,,,,,,,,,,,,,,,,,36.63929626,None,36.64551434,None,,,,,,,,,,,,,,,,,,,,,,,,,,,,,,,,,,,,,,,,,,,,,,,,,,,,,,,,,,,,,,,,,,,,,,,,,,,,,,,,,,,,,,,,,1,1,2020_Jul_20_2230,sonority,2020.1.3,60.01110294
aoiConditions/train1Block3.xlsx,aoiConditions/train1Block3Test.xlsx,trainingaudio/02_pitito3.wav,pngimages/02_pallet.png,,,,,,,,,,0,2,2,2,0,1,1,1,,,,,,,,,,,,,,,,,,,,,,,,,,,,,,,,,,,37.67271027,None,37.67268052,37.67268052,,,,,,,,,,,,,,,,,,,,,,,,,,,,,,,,,,,,,,,,,,,,,,,,,,,,,,,,,,,,,,,,,,,,,,,,,,,,,,,,,,,,,,,,,1,1,2020_Jul_20_2230,sonority,2020.1.3,60.01110294
aoiConditions/train1Block3.xlsx,aoiConditions/train1Block3Test.xlsx,trainingaudio/16_kokapi2.wav,pngimages/16_icecream.png,,,,,,,,,,0,2,2,2,0,2,2,2,,,,,,,,,,,,,,,,,,,,,,,,,,,,,,,,,,,38.69031649,None,38.68492886,38.68492886,,,,,,,,,,,,,,,,,,,,,,,,,,,,,,,,,,,,,,,,,,,,,,,,,,,,,,,,,,,,,,,,,,,,,,,,,,,,,,,,,,,,,,,,,1,1,2020_Jul_20_2230,sonority,2020.1.3,60.01110294
aoiConditions/train1Block3.xlsx,aoiConditions/train1Block3Test.xlsx,trainingaudio/04_kitoti2.wav,pngimages/04_ladder.png,,,,,,,,,,0,2,2,2,0,3,3,3,,,,,,,,,,,,,,,,,,,,,,,,,,,,,,,,,,,39.70763574,None,39.71052016,39.71052016,,,,,,,,,,,,,,,,,,,,,,,,,,,,,,,,,,,,,,,,,,,,,,,,,,,,,,,,,,,,,,,,,,,,,,,,,,,,,,,,,,,,,,,,,1,1,2020_Jul_20_2230,sonority,2020.1.3,60.01110294
aoiConditions/train1Block3.xlsx,aoiConditions/train1Block3Test.xlsx,trainingaudio/26_kapako1.wav,pngimages/26_pineapple.png,,,,,,,,,,0,2,2,2,0,4,4,4,,,,,,,,,,,,,,,,,,,,,,,,,,,,,,,,,,,40.74183587,None,40.74520133,40.74520133,,,,,,,,,,,,,,,,,,,,,,,,,,,,,,,,,,,,,,,,,,,,,,,,,,,,,,,,,,,,,,,,,,,,,,,,,,,,,,,,,,,,,,,,,1,1,2020_Jul_20_2230,sonority,2020.1.3,60.01110294
aoiConditions/train1Block3.xlsx,aoiConditions/train1Block3Test.xlsx,trainingaudio/19_papipi1.wav,pngimages/19_burger.png,,,,,,,,,,0,2,2,2,0,5,5,5,,,,,,,,,,,,,,,,,,,,,,,,,,,,,,,,,,,41.77600089,None,41.7754716,41.7754716,,,,,,,,,,,,,,,,,,,,,,,,,,,,,,,,,,,,,,,,,,,,,,,,,,,,,,,,,,,,,,,,,,,,,,,,,,,,,,,,,,,,,,,,,1,1,2020_Jul_20_2230,sonority,2020.1.3,60.01110294
aoiConditions/train1Block3.xlsx,aoiConditions/train1Block3Test.xlsx,,,trainingaudio/17_kotako2.wav,pngimages/17_cracker.png,trainingaudio/02_pitito3.wav,pngimages/02_pallet.png,0.5,-0.5,,,,0,2,2,2,,,,,0,0,0,0,,,,,,,,,,,,,,,,,,,,,,,,,,,,,,,,,,,42.79352706,None,42.8004127,None,42.8004127,None,j,2.490141744,43.79522058,None,,,,,,,,,,,,,,,,,,,,,,,,,,,,,,,,,,,,,,,,,,,,,,,,,,,,,,,,,,,,,,,,,,,,,,,,,,,,,,,1,1,2020_Jul_20_2230,sonority,2020.1.3,60.01110294
aoiConditions/train1Block3.xlsx,aoiConditions/train1Block3Test.xlsx,,,trainingaudio/26_kapako1.wav,pngimages/26_pineapple.png,trainingaudio/19_papipi1.wav,pngimages/19_burger.png,-0.5,0.5,,,,0,2,2,2,,,,,0,1,1,1,,,,,,,,,,,,,,,,,,,,,,,,,,,,,,,,,,,46.3472562,None,46.35239424,None,46.35239424,None,f,1.853593814,47.34809775,None,,,,,,,,,,,,,,,,,,,,,,,,,,,,,,,,,,,,,,,,,,,,,,,,,,,,,,,,,,,,,,,,,,,,,,,,,,,,,,,1,1,2020_Jul_20_2230,sonority,2020.1.3,60.01110294
aoiConditions/train1Block3.xlsx,aoiConditions/train1Block3Test.xlsx,,,trainingaudio/16_kokapi2.wav,pngimages/16_icecream.png,trainingaudio/04_kitoti2.wav,pngimages/04_ladder.png,-0.5,0.5,,,,0,2,2,2,,,,,0,2,2,2,,,,,,,,,,,,,,,,,,,,,,,,,,,,,,,,,,,49.24993045,None,49.25395252,None,49.25395252,None,j,-0.320326305,50.25073439,None,,,,,,,,,,,,,,,,,,,,,,,,,,,,,,,,,,,,,,,,,,,,,,,,,,,,,,,,,,,,,,,,,,,,,,,,,,,,,,,1,1,2020_Jul_20_2230,sonority,2020.1.3,60.01110294
aoiConditions/train1Block3.xlsx,aoiConditions/train1Block3Test.xlsx,,,,,,,,,,,,0,2,2,2,,,,,,,,,,,,,,,,,,,,,,,,,,,,,,,,,,,,,,,,,,,,,,,,,,,,,,,,,,,,,,,,,,,,,,,,,,,,,,,,,,,,,,,,,,,,,,,,,,,,,,,,,,,,,,,,,,,,,,,,,,,,,,,,,,,1,1,2020_Jul_20_2230,sonority,2020.1.3,60.01110294
aoiConditions/train1Block4.xlsx,aoiConditions/train1Block4Test.xlsx,trainingaudio/12_pokika3.wav,pngimages/12_pie.png,,,,,,,,,,0,3,3,3,0,0,0,0,,,,,,,,,,,,,,,,,,,,,,,,,,,,,,,,,,,50.30082811,None,50.3005188,None,,,,,,,,,,,,,,,,,,,,,,,,,,,,,,,,,,,,,,,,,,,,,,,,,,,,,,,,,,,,,,,,,,,,,,,,,,,,,,,,,,,,,,,,,1,1,2020_Jul_20_2230,sonority,2020.1.3,60.01110294
aoiConditions/train1Block4.xlsx,aoiConditions/train1Block4Test.xlsx,trainingaudio/15_kopota3.wav,pngimages/15_barrel.png,,,,,,,,,,0,3,3,3,0,1,1,1,,,,,,,,,,,,,,,,,,,,,,,,,,,,,,,,,,,51.35080032,None,51.34380881,51.34380881,,,,,,,,,,,,,,,,,,,,,,,,,,,,,,,,,,,,,,,,,,,,,,,,,,,,,,,,,,,,,,,,,,,,,,,,,,,,,,,,,,,,,,,,,1,1,2020_Jul_20_2230,sonority,2020.1.3,60.01110294
aoiConditions/train1Block4.xlsx,aoiConditions/train1Block4Test.xlsx,trainingaudio/13_kopopi1.wav,pngimages/13_toast.png,,,,,,,,,,0,3,3,3,0,2,2,2,,,,,,,,,,,,,,,,,,,,,,,,,,,,,,,,,,,52.36829107,None,52.36217283,52.36217283,,,,,,,,,,,,,,,,,,,,,,,,,,,,,,,,,,,,,,,,,,,,,,,,,,,,,,,,,,,,,,,,,,,,,,,,,,,,,,,,,,,,,,,,,1,1,2020_Jul_20_2230,sonority,2020.1.3,60.01110294
aoiConditions/train1Block4.xlsx,aoiConditions/train1Block4Test.xlsx,trainingaudio/06_titoka3.wav,pngimages/06_tent.png,,,,,,,,,,0,3,3,3,0,3,3,3,,,,,,,,,,,,,,,,,,,,,,,,,,,,,,,,,,,53.36902191,None,53.37353385,53.37353385,,,,,,,,,,,,,,,,,,,,,,,,,,,,,,,,,,,,,,,,,,,,,,,,,,,,,,,,,,,,,,,,,,,,,,,,,,,,,,,,,,,,,,,,,1,1,2020_Jul_20_2230,sonority,2020.1.3,60.01110294
aoiConditions/train1Block4.xlsx,aoiConditions/train1Block4Test.xlsx,trainingaudio/14_pokoto1.wav,pngimages/14_coffee.png,,,,,,,,,,0,3,3,3,0,4,4,4,,,,,,,,,,,,,,,,,,,,,,,,,,,,,,,,,,,54.40333736,None,54.39871132,54.39871132,,,,,,,,,,,,,,,,,,,,,,,,,,,,,,,,,,,,,,,,,,,,,,,,,,,,,,,,,,,,,,,,,,,,,,,,,,,,,,,,,,,,,,,,,1,1,2020_Jul_20_2230,sonority,2020.1.3,60.01110294
aoiConditions/train1Block4.xlsx,aoiConditions/train1Block4Test.xlsx,trainingaudio/25_tapapi1.wav,pngimages/25_apple.png,,,,,,,,,,0,3,3,3,0,5,5,5,,,,,,,,,,,,,,,,,,,,,,,,,,,,,,,,,,,55.42065624,None,55.41053677,55.41053677,,,,,,,,,,,,,,,,,,,,,,,,,,,,,,,,,,,,,,,,,,,,,,,,,,,,,,,,,,,,,,,,,,,,,,,,,,,,,,,,,,,,,,,,,1,1,2020_Jul_20_2230,sonority,2020.1.3,60.01110294
aoiConditions/train1Block4.xlsx,aoiConditions/train1Block4Test.xlsx,,,trainingaudio/14_pokoto1.wav,pngimages/14_coffee.png,trainingaudio/15_kopota3.wav,pngimages/15_barrel.png,0.5,-0.5,,,,0,3,3,3,,,,,0,0,0,0,,,,,,,,,,,,,,,,,,,,,,,,,,,,,,,,,,,56.47165675,None,56.47404094,None,56.47404094,None,f,0.694254354,57.47325784,None,,,,,,,,,,,,,,,,,,,,,,,,,,,,,,,,,,,,,,,,,,,,,,,,,,,,,,,,,,,,,,,,,,,,,,,,,,,,,,,1,1,2020_Jul_20_2230,sonority,2020.1.3,60.01110294
aoiConditions/train1Block4.xlsx,aoiConditions/train1Block4Test.xlsx,,,trainingaudio/12_pokika3.wav,pngimages/12_pie.png,trainingaudio/06_titoka3.wav,pngimages/06_tent.png,0.5,-0.5,,,,0,3,3,3,,,,,0,1,1,1,,,,,,,,,,,,,,,,,,,,,,,,,,,,,,,,,,,58.22368534,None,58.22156477,None,58.22156477,None,j,1.585509583,59.20793675,None,,,,,,,,,,,,,,,,,,,,,,,,,,,,,,,,,,,,,,,,,,,,,,,,,,,,,,,,,,,,,,,,,,,,,,,,,,,,,,,1,1,2020_Jul_20_2230,sonority,2020.1.3,60.01110294
aoiConditions/train1Block4.xlsx,aoiConditions/train1Block4Test.xlsx,,,trainingaudio/13_kopopi1.wav,pngimages/13_toast.png,trainingaudio/25_tapapi1.wav,pngimages/25_apple.png,-0.5,0.5,,,,0,3,3,3,,,,,0,2,2,2,,,,,,,,,,,,,,,,,,,,,,,,,,,,,,,,,,,60.82595558,None,60.8237132,None,60.8237132,None,f,0.299456661,61.81019015,None,,,,,,,,,,,,,,,,,,,,,,,,,,,,,,,,,,,,,,,,,,,,,,,,,,,,,,,,,,,,,,,,,,,,,,,,,,,,,,,1,1,2020_Jul_20_2230,sonority,2020.1.3,60.01110294
aoiConditions/train1Block4.xlsx,aoiConditions/train1Block4Test.xlsx,,,,,,,,,,,,0,3,3,3,,,,,,,,,,,,,,,,,,,,,,,,,,,,,,,,,,,,,,,,,,,,,,,,,,,,,,,,,,,,,,,,,,,,,,,,,,,,,,,,,,,,,,,,,,,,,,,,,,,,,,,,,,,,,,,,,,,,,,,,,,,,,,,,,,,1,1,2020_Jul_20_2230,sonority,2020.1.3,60.01110294
aoiConditions/train1Block5.xlsx,aoiConditions/train1Block5Test.xlsx,trainingaudio/07_pitapi2.wav,pngimages/07_suitcase.png,,,,,,,,,,0,4,4,4,0,0,0,0,,,,,,,,,,,,,,,,,,,,,,,,,,,,,,,,,,,62.16074451,None,62.16230347,None,,,,,,,,,,,,,,,,,,,,,,,,,,,,,,,,,,,,,,,,,,,,,,,,,,,,,,,,,,,,,,,,,,,,,,,,,,,,,,,,,,,,,,,,,1,1,2020_Jul_20_2230,sonority,2020.1.3,60.01110294
aoiConditions/train1Block5.xlsx,aoiConditions/train1Block5Test.xlsx,trainingaudio/03_kikita3.wav,pngimages/03_box.png,,,,,,,,,,0,4,4,4,0,1,1,1,,,,,,,,,,,,,,,,,,,,,,,,,,,,,,,,,,,63.17718257,None,63.18264375,63.18264375,,,,,,,,,,,,,,,,,,,,,,,,,,,,,,,,,,,,,,,,,,,,,,,,,,,,,,,,,,,,,,,,,,,,,,,,,,,,,,,,,,,,,,,,,1,1,2020_Jul_20_2230,sonority,2020.1.3,60.01110294
aoiConditions/train1Block5.xlsx,aoiConditions/train1Block5Test.xlsx,trainingaudio/08_tipako2.wav,pngimages/08_bell.png,,,,,,,,,,0,4,4,4,0,2,2,2,,,,,,,,,,,,,,,,,,,,,,,,,,,,,,,,,,,64.21137266,None,64.20465331,64.20465331,,,,,,,,,,,,,,,,,,,,,,,,,,,,,,,,,,,,,,,,,,,,,,,,,,,,,,,,,,,,,,,,,,,,,,,,,,,,,,,,,,,,,,,,,1,1,2020_Jul_20_2230,sonority,2020.1.3,60.01110294
aoiConditions/train1Block5.xlsx,aoiConditions/train1Block5Test.xlsx,trainingaudio/05_titopo2.wav,pngimages/05_megaphone.png,,,,,,,,,,0,4,4,4,0,3,3,3,,,,,,,,,,,,,,,,,,,,,,,,,,,,,,,,,,,65.22908799,None,65.23133807,65.23133807,,,,,,,,,,,,,,,,,,,,,,,,,,,,,,,,,,,,,,,,,,,,,,,,,,,,,,,,,,,,,,,,,,,,,,,,,,,,,,,,,,,,,,,,,1,1,2020_Jul_20_2230,sonority,2020.1.3,60.01110294
aoiConditions/train1Block5.xlsx,aoiConditions/train1Block5Test.xlsx,trainingaudio/21_papika1.wav,pngimages/21_cheese.png,,,,,,,,,,0,4,4,4,0,4,4,4,,,,,,,,,,,,,,,,,,,,,,,,,,,,,,,,,,,66.26318769,None,66.26686955,66.26686955,,,,,,,,,,,,,,,,,,,,,,,,,,,,,,,,,,,,,,,,,,,,,,,,,,,,,,,,,,,,,,,,,,,,,,,,,,,,,,,,,,,,,,,,,1,1,2020_Jul_20_2230,sonority,2020.1.3,60.01110294
aoiConditions/train1Block5.xlsx,aoiConditions/train1Block5Test.xlsx,trainingaudio/20_tatito1.wav,pngimages/20_pizza.png,,,,,,,,,,0,4,4,4,0,5,5,5,,,,,,,,,,,,,,,,,,,,,,,,,,,,,,,,,,,67.29709973,None,67.2877981,67.2877981,,,,,,,,,,,,,,,,,,,,,,,,,,,,,,,,,,,,,,,,,,,,,,,,,,,,,,,,,,,,,,,,,,,,,,,,,,,,,,,,,,,,,,,,,1,1,2020_Jul_20_2230,sonority,2020.1.3,60.01110294
aoiConditions/train1Block5.xlsx,aoiConditions/train1Block5Test.xlsx,,,trainingaudio/07_pitapi2.wav,pngimages/07_suitcase.png,trainingaudio/20_tatito1.wav,pngimages/20_pizza.png,0.5,-0.5,,,,0,4,4,4,,,,,0,0,0,0,,,,,,,,,,,,,,,,,,,,,,,,,,,,,,,,,,,68.34816367,None,68.35205291,None,68.35205291,None,j,1.289814004,69.33297904,None,,,,,,,,,,,,,,,,,,,,,,,,,,,,,,,,,,,,,,,,,,,,,,,,,,,,,,,,,,,,,,,,,,,,,,,,,,,,,,,1,1,2020_Jul_20_2230,sonority,2020.1.3,60.01110294
aoiConditions/train1Block5.xlsx,aoiConditions/train1Block5Test.xlsx,,,trainingaudio/21_papika1.wav,pngimages/21_cheese.png,trainingaudio/05_titopo2.wav,pngimages/05_megaphone.png,0.5,-0.5,,,,0,4,4,4,,,,,0,1,1,1,,,,,,,,,,,,,,,,,,,,,,,,,,,,,,,,,,,70.68429687,None,70.68420731,None,70.68420731,None,j,0.642226367,71.66825376,None,,,,,,,,,,,,,,,,,,,,,,,,,,,,,,,,,,,,,,,,,,,,,,,,,,,,,,,,,,,,,,,,,,,,,,,,,,,,,,,1,1,2020_Jul_20_2230,sonority,2020.1.3,60.01110294
aoiConditions/train1Block5.xlsx,aoiConditions/train1Block5Test.xlsx,,,trainingaudio/08_tipako2.wav,pngimages/08_bell.png,trainingaudio/03_kikita3.wav,pngimages/03_box.png,-0.5,0.5,,,,0,4,4,4,,,,,0,2,2,2,,,,,,,,,,,,,,,,,,,,,,,,,,,,,,,,,,,72.35232809,None,72.34602332,None,72.34602332,None,f,0.798635046,73.33650451,None,,,,,,,,,,,,,,,,,,,,,,,,,,,,,,,,,,,,,,,,,,,,,,,,,,,,,,,,,,,,,,,,,,,,,,,,,,,,,,,1,1,2020_Jul_20_2230,sonority,2020.1.3,60.01110294
aoiConditions/train1Block5.xlsx,aoiConditions/train1Block5Test.xlsx,,,,,,,,,,,,0,4,4,4,,,,,,,,,,,,,,,,,,,,,,,,,,,,,,,,,,,,,,,,,,,,,,,,,,,,,,,,,,,,,,,,,,,,,,,,,,,,,,,,,,,,,,,,,,,,,,,,,,,,,,,,,,,,,,,,,,,,,,,,,,,,,,,,,,,1,1,2020_Jul_20_2230,sonority,2020.1.3,60.01110294
aoiConditions/train1Block6.xlsx,aoiConditions/train1Block6Test.xlsx,trainingaudio/11_tokiko1.wav,pngimages/11_compass.png,,,,,,,,,,0,5,5,5,0,0,0,0,,,,,,,,,,,,,,,,,,,,,,,,,,,,,,,,,,,74.18732544,None,74.17639516,None,,,,,,,,,,,,,,,,,,,,,,,,,,,,,,,,,,,,,,,,,,,,,,,,,,,,,,,,,,,,,,,,,,,,,,,,,,,,,,,,,,,,,,,,,1,1,2020_Jul_20_2230,sonority,2020.1.3,60.01110294
aoiConditions/train1Block6.xlsx,aoiConditions/train1Block6Test.xlsx,trainingaudio/18_popata2.wav,pngimages/18_donut.png,,,,,,,,,,0,5,5,5,0,1,1,1,,,,,,,,,,,,,,,,,,,,,,,,,,,,,,,,,,,75.20391695,None,75.19363474,75.19363474,,,,,,,,,,,,,,,,,,,,,,,,,,,,,,,,,,,,,,,,,,,,,,,,,,,,,,,,,,,,,,,,,,,,,,,,,,,,,,,,,,,,,,,,,1,1,2020_Jul_20_2230,sonority,2020.1.3,60.01110294
aoiConditions/train1Block6.xlsx,aoiConditions/train1Block6Test.xlsx,trainingaudio/24_takopa1.wav,pngimages/24_banana.png,,,,,,,,,,0,5,5,5,0,2,2,2,,,,,,,,,,,,,,,,,,,,,,,,,,,,,,,,,,,76.254814,None,76.24754799,76.24754799,,,,,,,,,,,,,,,,,,,,,,,,,,,,,,,,,,,,,,,,,,,,,,,,,,,,,,,,,,,,,,,,,,,,,,,,,,,,,,,,,,,,,,,,,1,1,2020_Jul_20_2230,sonority,2020.1.3,60.01110294
aoiConditions/train1Block6.xlsx,aoiConditions/train1Block6Test.xlsx,trainingaudio/17_kotako2.wav,pngimages/17_cracker.png,,,,,,,,,,0,5,5,5,0,3,3,3,,,,,,,,,,,,,,,,,,,,,,,,,,,,,,,,,,,77.28887353,None,77.27956495,77.27956495,,,,,,,,,,,,,,,,,,,,,,,,,,,,,,,,,,,,,,,,,,,,,,,,,,,,,,,,,,,,,,,,,,,,,,,,,,,,,,,,,,,,,,,,,1,1,2020_Jul_20_2230,sonority,2020.1.3,60.01110294
aoiConditions/train1Block6.xlsx,aoiConditions/train1Block6Test.xlsx,trainingaudio/23_patoko1.wav,pngimages/23_lemon.png,,,,,,,,,,0,5,5,5,0,4,4,4,,,,,,,,,,,,,,,,,,,,,,,,,,,,,,,,,,,78.3064086,None,78.30700337,78.30700337,,,,,,,,,,,,,,,,,,,,,,,,,,,,,,,,,,,,,,,,,,,,,,,,,,,,,,,,,,,,,,,,,,,,,,,,,,,,,,,,,,,,,,,,,1,1,2020_Jul_20_2230,sonority,2020.1.3,60.01110294
aoiConditions/train1Block6.xlsx,aoiConditions/train1Block6Test.xlsx,trainingaudio/27_pakapa1.wav,pngimages/27_kiwi.png,,,,,,,,,,0,5,5,5,0,5,5,5,,,,,,,,,,,,,,,,,,,,,,,,,,,,,,,,,,,79.32367009,None,79.32669609,79.32669609,,,,,,,,,,,,,,,,,,,,,,,,,,,,,,,,,,,,,,,,,,,,,,,,,,,,,,,,,,,,,,,,,,,,,,,,,,,,,,,,,,,,,,,,,1,1,2020_Jul_20_2230,sonority,2020.1.3,60.01110294
aoiConditions/train1Block6.xlsx,aoiConditions/train1Block6Test.xlsx,,,trainingaudio/23_patoko1.wav,pngimages/23_lemon.png,trainingaudio/17_kotako2.wav,pngimages/17_cracker.png,0.5,-0.5,,,,0,5,5,5,,,,,0,0,0,0,,,,,,,,,,,,,,,,,,,,,,,,,,,,,,,,,,,80.37495212,None,80.3679668,None,80.3679668,None,j,0.636035175,81.3594399,None,,,,,,,,,,,,,,,,,,,,,,,,,,,,,,,,,,,,,,,,,,,,,,,,,,,,,,,,,,,,,,,,,,,,,,,,,,,,,,,1,1,2020_Jul_20_2230,sonority,2020.1.3,60.01110294
aoiConditions/train1Block6.xlsx,aoiConditions/train1Block6Test.xlsx,,,trainingaudio/11_tokiko1.wav,pngimages/11_compass.png,trainingaudio/18_popata2.wav,pngimages/18_donut.png,-0.5,0.5,,,,0,5,5,5,,,,,0,1,1,1,,,,,,,,,,,,,,,,,,,,,,,,,,,,,,,,,,,82.04349383,None,82.04311784,None,82.04311784,None,f,0.588431303,83.02787566,None,,,,,,,,,,,,,,,,,,,,,,,,,,,,,,,,,,,,,,,,,,,,,,,,,,,,,,,,,,,,,,,,,,,,,,,,,,,,,,,1,1,2020_Jul_20_2230,sonority,2020.1.3,60.01110294
aoiConditions/train1Block6.xlsx,aoiConditions/train1Block6Test.xlsx,,,trainingaudio/24_takopa1.wav,pngimages/24_banana.png,trainingaudio/27_pakapa1.wav,pngimages/27_kiwi.png,-0.5,0.5,,,,0,5,5,5,,,,,0,2,2,2,,,,,,,,,,,,,,,,,,,,,,,,,,,,,,,,,,,83.67838244,None,83.6809401,None,83.6809401,None,f,0.283633762,84.67921984,None,,,,,,,,,,,,,,,,,,,,,,,,,,,,,,,,,,,,,,,,,,,,,,,,,,,,,,,,,,,,,,,,,,,,,,,,,,,,,,,1,1,2020_Jul_20_2230,sonority,2020.1.3,60.01110294
aoiConditions/train1Block6.xlsx,aoiConditions/train1Block6Test.xlsx,,,,,,,,,,,,0,5,5,5,,,,,,,,,,,,,,,,,,,,,,,,,,,,,,,,,,,,,,,,,,,,,,,,,,,,,,,,,,,,,,,,,,,,,,,,,,,,,,,,,,,,,,,,,,,,,,,,,,,,,,,,,,,,,,,,,,,,,,,,,,,,,,,,,,,1,1,2020_Jul_20_2230,sonority,2020.1.3,60.01110294
aoiConditions/train1Block7.xlsx,aoiConditions/train1Block7Test.xlsx,trainingaudio/01_kitipi1.wav,pngimages/01_gift.png,,,,,,,,,,0,6,6,6,0,0,0,0,,,,,,,,,,,,,,,,,,,,,,,,,,,,,,,,,,,85.01290314,None,85.00908535,None,,,,,,,,,,,,,,,,,,,,,,,,,,,,,,,,,,,,,,,,,,,,,,,,,,,,,,,,,,,,,,,,,,,,,,,,,,,,,,,,,,,,,,,,,1,1,2020_Jul_20_2230,sonority,2020.1.3,60.01110294
aoiConditions/train1Block7.xlsx,aoiConditions/train1Block7Test.xlsx,trainingaudio/13_kopopi1.wav,pngimages/13_toast.png,,,,,,,,,,0,6,6,6,0,1,1,1,,,,,,,,,,,,,,,,,,,,,,,,,,,,,,,,,,,86.02961132,None,86.01937329,86.01937329,,,,,,,,,,,,,,,,,,,,,,,,,,,,,,,,,,,,,,,,,,,,,,,,,,,,,,,,,,,,,,,,,,,,,,,,,,,,,,,,,,,,,,,,,1,1,2020_Jul_20_2230,sonority,2020.1.3,60.01110294
aoiConditions/train1Block7.xlsx,aoiConditions/train1Block7Test.xlsx,trainingaudio/15_kopota3.wav,pngimages/15_barrel.png,,,,,,,,,,0,6,6,6,0,2,2,2,,,,,,,,,,,,,,,,,,,,,,,,,,,,,,,,,,,87.0638218,None,87.06595468,87.06595468,,,,,,,,,,,,,,,,,,,,,,,,,,,,,,,,,,,,,,,,,,,,,,,,,,,,,,,,,,,,,,,,,,,,,,,,,,,,,,,,,,,,,,,,,1,1,2020_Jul_20_2230,sonority,2020.1.3,60.01110294
aoiConditions/train1Block7.xlsx,aoiConditions/train1Block7Test.xlsx,trainingaudio/16_kokapi2.wav,pngimages/16_icecream.png,,,,,,,,,,0,6,6,6,0,3,3,3,,,,,,,,,,,,,,,,,,,,,,,,,,,,,,,,,,,88.08142582,None,88.08230392,88.08230392,,,,,,,,,,,,,,,,,,,,,,,,,,,,,,,,,,,,,,,,,,,,,,,,,,,,,,,,,,,,,,,,,,,,,,,,,,,,,,,,,,,,,,,,,1,1,2020_Jul_20_2230,sonority,2020.1.3,60.01110294
aoiConditions/train1Block7.xlsx,aoiConditions/train1Block7Test.xlsx,trainingaudio/09_tipata2.wav,pngimages/09_plane.png,,,,,,,,,,0,6,6,6,0,4,4,4,,,,,,,,,,,,,,,,,,,,,,,,,,,,,,,,,,,89.11550618,None,89.10407938,89.10407938,,,,,,,,,,,,,,,,,,,,,,,,,,,,,,,,,,,,,,,,,,,,,,,,,,,,,,,,,,,,,,,,,,,,,,,,,,,,,,,,,,,,,,,,,1,1,2020_Jul_20_2230,sonority,2020.1.3,60.01110294
aoiConditions/train1Block7.xlsx,aoiConditions/train1Block7Test.xlsx,trainingaudio/22_kakoki1.wav,pngimages/22_egg.png,,,,,,,,,,0,6,6,6,0,5,5,5,,,,,,,,,,,,,,,,,,,,,,,,,,,,,,,,,,,90.14954396,None,90.14018403,90.14018403,,,,,,,,,,,,,,,,,,,,,,,,,,,,,,,,,,,,,,,,,,,,,,,,,,,,,,,,,,,,,,,,,,,,,,,,,,,,,,,,,,,,,,,,,1,1,2020_Jul_20_2230,sonority,2020.1.3,60.01110294
aoiConditions/train1Block7.xlsx,aoiConditions/train1Block7Test.xlsx,,,trainingaudio/01_kitipi1.wav,pngimages/01_gift.png,trainingaudio/16_kokapi2.wav,pngimages/16_icecream.png,0.5,-0.5,,,,0,6,6,6,,,,,0,0,0,0,,,,,,,,,,,,,,,,,,,,,,,,,,,,,,,,,,,91.1840016,None,91.18056592,None,91.18056592,None,j,-0.177935313,92.16861247,None,,,,,,,,,,,,,,,,,,,,,,,,,,,,,,,,,,,,,,,,,,,,,,,,,,,,,,,,,,,,,,,,,,,,,,,,,,,,,,,1,1,2020_Jul_20_2230,sonority,2020.1.3,60.01110294
aoiConditions/train1Block7.xlsx,aoiConditions/train1Block7Test.xlsx,,,trainingaudio/15_kopota3.wav,pngimages/15_barrel.png,trainingaudio/22_kakoki1.wav,pngimages/22_egg.png,0.5,-0.5,,,,0,6,6,6,,,,,0,1,1,1,,,,,,,,,,,,,,,,,,,,,,,,,,,,,,,,,,,92.23540409,None,92.24022066,None,92.24022066,None,j,-0.845900606,93.23627909,None,,,,,,,,,,,,,,,,,,,,,,,,,,,,,,,,,,,,,,,,,,,,,,,,,,,,,,,,,,,,,,,,,,,,,,,,,,,,,,,1,1,2020_Jul_20_2230,sonority,2020.1.3,60.01110294
aoiConditions/train1Block7.xlsx,aoiConditions/train1Block7Test.xlsx,,,trainingaudio/09_tipata2.wav,pngimages/09_plane.png,trainingaudio/13_kopopi1.wav,pngimages/13_toast.png,-0.5,0.5,,,,0,6,6,6,,,,,0,2,2,2,,,,,,,,,,,,,,,,,,,,,,,,,,,,,,,,,,,93.28637281,None,93.28617677,None,93.28617677,None,j,0.621770552,94.27064498,None,,,,,,,,,,,,,,,,,,,,,,,,,,,,,,,,,,,,,,,,,,,,,,,,,,,,,,,,,,,,,,,,,,,,,,,,,,,,,,,1,1,2020_Jul_20_2230,sonority,2020.1.3,60.01110294
aoiConditions/train1Block7.xlsx,aoiConditions/train1Block7Test.xlsx,,,,,,,,,,,,0,6,6,6,,,,,,,,,,,,,,,,,,,,,,,,,,,,,,,,,,,,,,,,,,,,,,,,,,,,,,,,,,,,,,,,,,,,,,,,,,,,,,,,,,,,,,,,,,,,,,,,,,,,,,,,,,,,,,,,,,,,,,,,,,,,,,,,,,,1,1,2020_Jul_20_2230,sonority,2020.1.3,60.01110294
aoiConditions/train1Block8.xlsx,aoiConditions/train1Block8Test.xlsx,trainingaudio/19_papipi1.wav,pngimages/19_burger.png,,,,,,,,,,0,7,7,7,0,0,0,0,,,,,,,,,,,,,,,,,,,,,,,,,,,,,,,,,,,94.9544914,None,94.95178369,None,,,,,,,,,,,,,,,,,,,,,,,,,,,,,,,,,,,,,,,,,,,,,,,,,,,,,,,,,,,,,,,,,,,,,,,,,,,,,,,,,,,,,,,,,1,1,2020_Jul_20_2230,sonority,2020.1.3,60.01110294
aoiConditions/train1Block8.xlsx,aoiConditions/train1Block8Test.xlsx,trainingaudio/14_pokoto1.wav,pngimages/14_coffee.png,,,,,,,,,,0,7,7,7,0,1,1,1,,,,,,,,,,,,,,,,,,,,,,,,,,,,,,,,,,,95.95444692,None,95.95775173,95.95775173,,,,,,,,,,,,,,,,,,,,,,,,,,,,,,,,,,,,,,,,,,,,,,,,,,,,,,,,,,,,,,,,,,,,,,,,,,,,,,,,,,,,,,,,,1,1,2020_Jul_20_2230,sonority,2020.1.3,60.01110294
aoiConditions/train1Block8.xlsx,aoiConditions/train1Block8Test.xlsx,trainingaudio/10_tokiti1.wav,pngimages/10_backpack.png,,,,,,,,,,0,7,7,7,0,2,2,2,,,,,,,,,,,,,,,,,,,,,,,,,,,,,,,,,,,96.98867968,None,96.98156575,96.98156575,,,,,,,,,,,,,,,,,,,,,,,,,,,,,,,,,,,,,,,,,,,,,,,,,,,,,,,,,,,,,,,,,,,,,,,,,,,,,,,,,,,,,,,,,1,1,2020_Jul_20_2230,sonority,2020.1.3,60.01110294
aoiConditions/train1Block8.xlsx,aoiConditions/train1Block8Test.xlsx,trainingaudio/08_tipako2.wav,pngimages/08_bell.png,,,,,,,,,,0,7,7,7,0,3,3,3,,,,,,,,,,,,,,,,,,,,,,,,,,,,,,,,,,,97.98956571,None,97.99398967,97.99398967,,,,,,,,,,,,,,,,,,,,,,,,,,,,,,,,,,,,,,,,,,,,,,,,,,,,,,,,,,,,,,,,,,,,,,,,,,,,,,,,,,,,,,,,,1,1,2020_Jul_20_2230,sonority,2020.1.3,60.01110294
aoiConditions/train1Block8.xlsx,aoiConditions/train1Block8Test.xlsx,trainingaudio/02_pitito3.wav,pngimages/02_pallet.png,,,,,,,,,,0,7,7,7,0,4,4,4,,,,,,,,,,,,,,,,,,,,,,,,,,,,,,,,,,,99.02371842,None,99.01516327,99.01516327,,,,,,,,,,,,,,,,,,,,,,,,,,,,,,,,,,,,,,,,,,,,,,,,,,,,,,,,,,,,,,,,,,,,,,,,,,,,,,,,,,,,,,,,,1,1,2020_Jul_20_2230,sonority,2020.1.3,60.01110294
aoiConditions/train1Block8.xlsx,aoiConditions/train1Block8Test.xlsx,trainingaudio/12_pokika3.wav,pngimages/12_pie.png,,,,,,,,,,0,7,7,7,0,5,5,5,,,,,,,,,,,,,,,,,,,,,,,,,,,,,,,,,,,100.0577839,None,100.0555255,100.0555255,,,,,,,,,,,,,,,,,,,,,,,,,,,,,,,,,,,,,,,,,,,,,,,,,,,,,,,,,,,,,,,,,,,,,,,,,,,,,,,,,,,,,,,,,1,1,2020_Jul_20_2230,sonority,2020.1.3,60.01110294
aoiConditions/train1Block8.xlsx,aoiConditions/train1Block8Test.xlsx,,,trainingaudio/19_papipi1.wav,pngimages/19_burger.png,trainingaudio/12_pokika3.wav,pngimages/12_pie.png,-0.5,0.5,,,,0,7,7,7,,,,,0,0,0,0,,,,,,,,,,,,,,,,,,,,,,,,,,,,,,,,,,,101.1255263,None,101.1204566,None,101.1204566,None,f,0.186905499,102.1104514,None,,,,,,,,,,,,,,,,,,,,,,,,,,,,,,,,,,,,,,,,,,,,,,,,,,,,,,,,,,,,,,,,,,,,,,,,,,,,,,,1,1,2020_Jul_20_2230,sonority,2020.1.3,60.01110294
aoiConditions/train1Block8.xlsx,aoiConditions/train1Block8Test.xlsx,,,trainingaudio/02_pitito3.wav,pngimages/02_pallet.png,trainingaudio/08_tipako2.wav,pngimages/08_bell.png,-0.5,0.5,,,,0,7,7,7,,,,,0,1,1,1,,,,,,,,,,,,,,,,,,,,,,,,,,,,,,,,,,,102.3439911,None,102.3351343,None,102.3351343,None,j,3.856291628,103.3114026,None,,,,,,,,,,,,,,,,,,,,,,,,,,,,,,,,,,,,,,,,,,,,,,,,,,,,,,,,,,,,,,,,,,,,,,,,,,,,,,,1,1,2020_Jul_20_2230,sonority,2020.1.3,60.01110294
aoiConditions/train1Block8.xlsx,aoiConditions/train1Block8Test.xlsx,,,trainingaudio/10_tokiti1.wav,pngimages/10_backpack.png,trainingaudio/14_pokoto1.wav,pngimages/14_coffee.png,0.5,-0.5,,,,0,7,7,7,,,,,0,2,2,2,,,,,,,,,,,,,,,,,,,,,,,,,,,,,,,,,,,107.2010994,None,107.1984281,None,107.1984281,None,f,0.055244974,108.1852808,None,,,,,,,,,,,,,,,,,,,,,,,,,,,,,,,,,,,,,,,,,,,,,,,,,,,,,,,,,,,,,,,,,,,,,,,,,,,,,,,1,1,2020_Jul_20_2230,sonority,2020.1.3,60.01110294
aoiConditions/train1Block8.xlsx,aoiConditions/train1Block8Test.xlsx,,,,,,,,,,,,0,7,7,7,,,,,,,,,,,,,,,,,,,,,,,,,,,,,,,,,,,,,,,,,,,,,,,,,,,,,,,,,,,,,,,,,,,,,,,,,,,,,,,,,,,,,,,,,,,,,,,,,,,,,,,,,,,,,,,,,,,,,,,,,,,,,,,,,,,1,1,2020_Jul_20_2230,sonority,2020.1.3,60.01110294
aoiConditions/train1Block9.xlsx,aoiConditions/train1Block9Test.xlsx,trainingaudio/04_kitoti2.wav,pngimages/04_ladder.png,,,,,,,,,,0,8,8,8,0,0,0,0,,,,,,,,,,,,,,,,,,,,,,,,,,,,,,,,,,,108.3017645,None,108.2944964,None,,,,,,,,,,,,,,,,,,,,,,,,,,,,,,,,,,,,,,,,,,,,,,,,,,,,,,,,,,,,,,,,,,,,,,,,,,,,,,,,,,,,,,,,,1,1,2020_Jul_20_2230,sonority,2020.1.3,60.01110294
aoiConditions/train1Block9.xlsx,aoiConditions/train1Block9Test.xlsx,trainingaudio/26_kapako1.wav,pngimages/26_pineapple.png,,,,,,,,,,0,8,8,8,0,1,1,1,,,,,,,,,,,,,,,,,,,,,,,,,,,,,,,,,,,109.3156608,None,109.3200122,109.3200122,,,,,,,,,,,,,,,,,,,,,,,,,,,,,,,,,,,,,,,,,,,,,,,,,,,,,,,,,,,,,,,,,,,,,,,,,,,,,,,,,,,,,,,,,1,1,2020_Jul_20_2230,sonority,2020.1.3,60.01110294
aoiConditions/train1Block9.xlsx,aoiConditions/train1Block9Test.xlsx,trainingaudio/05_titopo2.wav,pngimages/05_megaphone.png,,,,,,,,,,0,8,8,8,0,2,2,2,,,,,,,,,,,,,,,,,,,,,,,,,,,,,,,,,,,110.3497349,None,110.3406957,110.3406957,,,,,,,,,,,,,,,,,,,,,,,,,,,,,,,,,,,,,,,,,,,,,,,,,,,,,,,,,,,,,,,,,,,,,,,,,,,,,,,,,,,,,,,,,1,1,2020_Jul_20_2230,sonority,2020.1.3,60.01110294
aoiConditions/train1Block9.xlsx,aoiConditions/train1Block9Test.xlsx,trainingaudio/23_patoko1.wav,pngimages/23_lemon.png,,,,,,,,,,0,8,8,8,0,3,3,3,,,,,,,,,,,,,,,,,,,,,,,,,,,,,,,,,,,111.3672123,None,111.3607033,111.3607033,,,,,,,,,,,,,,,,,,,,,,,,,,,,,,,,,,,,,,,,,,,,,,,,,,,,,,,,,,,,,,,,,,,,,,,,,,,,,,,,,,,,,,,,,1,1,2020_Jul_20_2230,sonority,2020.1.3,60.01110294
aoiConditions/train1Block9.xlsx,aoiConditions/train1Block9Test.xlsx,trainingaudio/27_pakapa1.wav,pngimages/27_kiwi.png,,,,,,,,,,0,8,8,8,0,4,4,4,,,,,,,,,,,,,,,,,,,,,,,,,,,,,,,,,,,112.3677865,None,112.368148,112.368148,,,,,,,,,,,,,,,,,,,,,,,,,,,,,,,,,,,,,,,,,,,,,,,,,,,,,,,,,,,,,,,,,,,,,,,,,,,,,,,,,,,,,,,,,1,1,2020_Jul_20_2230,sonority,2020.1.3,60.01110294
aoiConditions/train1Block9.xlsx,aoiConditions/train1Block9Test.xlsx,trainingaudio/24_takopa1.wav,pngimages/24_banana.png,,,,,,,,,,0,8,8,8,0,5,5,5,,,,,,,,,,,,,,,,,,,,,,,,,,,,,,,,,,,113.4023822,None,113.3949914,113.3949914,,,,,,,,,,,,,,,,,,,,,,,,,,,,,,,,,,,,,,,,,,,,,,,,,,,,,,,,,,,,,,,,,,,,,,,,,,,,,,,,,,,,,,,,,1,1,2020_Jul_20_2230,sonority,2020.1.3,60.01110294
aoiConditions/train1Block9.xlsx,aoiConditions/train1Block9Test.xlsx,,,trainingaudio/05_titopo2.wav,pngimages/05_megaphone.png,trainingaudio/24_takopa1.wav,pngimages/24_banana.png,-0.5,0.5,,,,0,8,8,8,,,,,0,0,0,0,,,,,,,,,,,,,,,,,,,,,,,,,,,,,,,,,,,114.4532127,None,114.4578371,None,114.4578371,None,j,-6.025242029,115.4547575,None,,,,,,,,,,,,,,,,,,,,,,,,,,,,,,,,,,,,,,,,,,,,,,,,,,,,,,,,,,,,,,,,,,,,,,,,,,,,,,,1,1,2020_Jul_20_2230,sonority,2020.1.3,60.01110294
aoiConditions/train1Block9.xlsx,aoiConditions/train1Block9Test.xlsx,,,trainingaudio/04_kitoti2.wav,pngimages/04_ladder.png,trainingaudio/23_patoko1.wav,pngimages/23_lemon.png,0.5,-0.5,,,,0,8,8,8,,,,,0,1,1,1,,,,,,,,,,,,,,,,,,,,,,,,,,,,,,,,,,,115.4881533,None,115.4922249,None,115.4922249,None,j,-0.809645301,116.4889607,None,,,,,,,,,,,,,,,,,,,,,,,,,,,,,,,,,,,,,,,,,,,,,,,,,,,,,,,,,,,,,,,,,,,,,,,,,,,,,,,1,1,2020_Jul_20_2230,sonority,2020.1.3,60.01110294
aoiConditions/train1Block9.xlsx,aoiConditions/train1Block9Test.xlsx,,,trainingaudio/27_pakapa1.wav,pngimages/27_kiwi.png,trainingaudio/26_kapako1.wav,pngimages/26_pineapple.png,-0.5,0.5,,,,0,8,8,8,,,,,0,2,2,2,,,,,,,,,,,,,,,,,,,,,,,,,,,,,,,,,,,116.5223565,None,116.5287192,None,116.5287192,None,f,0.420247013,117.5230781,None,,,,,,,,,,,,,,,,,,,,,,,,,,,,,,,,,,,,,,,,,,,,,,,,,,,,,,,,,,,,,,,,,,,,,,,,,,,,,,,1,1,2020_Jul_20_2230,sonority,2020.1.3,60.01110294
aoiConditions/train1Block9.xlsx,aoiConditions/train1Block9Test.xlsx,,,,,,,,,,,,0,8,8,8,,,,,,,,,,,,,,,,,,,,,,,,,,,,,,,,,,,,,,,,,,,,,,,,,,,,,,,,,,,,,,,,,,,,,,,,,,,,,,,,,,,,,,,,,,,,,,,,,,,,,,,,,,,,,,,,,,,,,,,,,,,,,,,,,,,1,1,2020_Jul_20_2230,sonority,2020.1.3,60.01110294
,,,,,,,,,,,,,,,,,,,,,,,,,,,,,,,,,,,,,,,,,,,,,,,,,,,,,,,,,,,,,,,,,,,,,117.9721617,None,f,7.320399556,117.9721617,None,,,,,,,,,,,,,,,,,,,,,,,,,,,,,,,,,,,,,,,,,,,,,,,,,,,,,,,,,,,,,,,,,,,,,,,,,1,1,2020_Jul_20_2230,sonority,2020.1.3,60.01110294
aoiConditions/train2Block1.xlsx,aoiConditions/train2Block1Test.xlsx,trainingaudio/12_pokika3.wav,pngimages/12_pie.png,,,,,,,,,,,,,,,,,,,,,,0,0,0,0,0,0,0,0,,,,,,,,,,,,,,,,,,,,,,,,,,,,,,,,,,,,,,,,,,,125.3783835,None,125.3730732,None,,,,,,,,,,,,,,,,,,,,,,,,,,,,,,,,,,,,,,,,,,,,,,,,,,,,,,,,,,,,,,,,,,,,,1,1,2020_Jul_20_2230,sonority,2020.1.3,60.01110294
aoiConditions/train2Block1.xlsx,aoiConditions/train2Block1Test.xlsx,trainingaudio/03_kikita3.wav,pngimages/03_box.png,,,,,,,,,,,,,,,,,,,,,,0,0,0,0,0,1,1,1,,,,,,,,,,,,,,,,,,,,,,,,,,,,,,,,,,,,,,,,,,,126.3795549,None,126.3838811,126.3838811,,,,,,,,,,,,,,,,,,,,,,,,,,,,,,,,,,,,,,,,,,,,,,,,,,,,,,,,,,,,,,,,,,,,,1,1,2020_Jul_20_2230,sonority,2020.1.3,60.01110294
aoiConditions/train2Block1.xlsx,aoiConditions/train2Block1Test.xlsx,trainingaudio/26_kapako1.wav,pngimages/26_pineapple.png,,,,,,,,,,,,,,,,,,,,,,0,0,0,0,0,2,2,2,,,,,,,,,,,,,,,,,,,,,,,,,,,,,,,,,,,,,,,,,,,127.430862,None,127.4283431,127.4283431,,,,,,,,,,,,,,,,,,,,,,,,,,,,,,,,,,,,,,,,,,,,,,,,,,,,,,,,,,,,,,,,,,,,,1,1,2020_Jul_20_2230,sonority,2020.1.3,60.01110294
aoiConditions/train2Block1.xlsx,aoiConditions/train2Block1Test.xlsx,trainingaudio/05_titopo2.wav,pngimages/05_megaphone.png,,,,,,,,,,,,,,,,,,,,,,0,0,0,0,0,3,3,3,,,,,,,,,,,,,,,,,,,,,,,,,,,,,,,,,,,,,,,,,,,128.4481014,None,128.4393515,128.4393515,,,,,,,,,,,,,,,,,,,,,,,,,,,,,,,,,,,,,,,,,,,,,,,,,,,,,,,,,,,,,,,,,,,,,1,1,2020_Jul_20_2230,sonority,2020.1.3,60.01110294
aoiConditions/train2Block1.xlsx,aoiConditions/train2Block1Test.xlsx,trainingaudio/20_tatito1.wav,pngimages/20_pizza.png,,,,,,,,,,,,,,,,,,,,,,0,0,0,0,0,4,4,4,,,,,,,,,,,,,,,,,,,,,,,,,,,,,,,,,,,,,,,,,,,129.4655136,None,129.4628891,129.4628891,,,,,,,,,,,,,,,,,,,,,,,,,,,,,,,,,,,,,,,,,,,,,,,,,,,,,,,,,,,,,,,,,,,,,1,1,2020_Jul_20_2230,sonority,2020.1.3,60.01110294
aoiConditions/train2Block1.xlsx,aoiConditions/train2Block1Test.xlsx,trainingaudio/10_tokiti1.wav,pngimages/10_backpack.png,,,,,,,,,,,,,,,,,,,,,,0,0,0,0,0,5,5,5,,,,,,,,,,,,,,,,,,,,,,,,,,,,,,,,,,,,,,,,,,,130.4831066,None,130.474852,130.474852,,,,,,,,,,,,,,,,,,,,,,,,,,,,,,,,,,,,,,,,,,,,,,,,,,,,,,,,,,,,,,,,,,,,,1,1,2020_Jul_20_2230,sonority,2020.1.3,60.01110294
aoiConditions/train2Block1.xlsx,aoiConditions/train2Block1Test.xlsx,trainingaudio/15_kopota3.wav,pngimages/15_barrel.png,,,,,,,,,,,,,,,,,,,,,,0,0,0,0,0,6,6,6,,,,,,,,,,,,,,,,,,,,,,,,,,,,,,,,,,,,,,,,,,,131.5172989,None,131.5226462,131.5226462,,,,,,,,,,,,,,,,,,,,,,,,,,,,,,,,,,,,,,,,,,,,,,,,,,,,,,,,,,,,,,,,,,,,,1,1,2020_Jul_20_2230,sonority,2020.1.3,60.01110294
aoiConditions/train2Block1.xlsx,aoiConditions/train2Block1Test.xlsx,trainingaudio/04_kitoti2.wav,pngimages/04_ladder.png,,,,,,,,,,,,,,,,,,,,,,0,0,0,0,0,7,7,7,,,,,,,,,,,,,,,,,,,,,,,,,,,,,,,,,,,,,,,,,,,132.5346368,None,132.5356168,132.5356168,,,,,,,,,,,,,,,,,,,,,,,,,,,,,,,,,,,,,,,,,,,,,,,,,,,,,,,,,,,,,,,,,,,,,1,1,2020_Jul_20_2230,sonority,2020.1.3,60.01110294
aoiConditions/train2Block1.xlsx,aoiConditions/train2Block1Test.xlsx,trainingaudio/16_kokapi2.wav,pngimages/16_icecream.png,,,,,,,,,,,,,,,,,,,,,,0,0,0,0,0,8,8,8,,,,,,,,,,,,,,,,,,,,,,,,,,,,,,,,,,,,,,,,,,,133.53558,None,133.5356882,133.5356882,,,,,,,,,,,,,,,,,,,,,,,,,,,,,,,,,,,,,,,,,,,,,,,,,,,,,,,,,,,,,,,,,,,,,1,1,2020_Jul_20_2230,sonority,2020.1.3,60.01110294
aoiConditions/train2Block1.xlsx,aoiConditions/train2Block1Test.xlsx,,,trainingaudio/26_kapako1.wav,pngimages/26_pineapple.png,trainingaudio/05_titopo2.wav,pngimages/05_megaphone.png,-0.5,0.5,,,,,,,,,,,,,,,,0,0,0,0,,,,,0,0,0,0,,,,,,,,,,,,,,,,,,,,,,,,,,,,,,,,,,,,,,,,,,,134.5696184,None,f,0.783027745,135.5714375,None,134.5728727,None,134.5728727,None,,,,,,,,,,,,,,,,,,,,,,,,,,,,,,,,,,,,,,,,,,,,,,,,,,,,,,,,,,,1,1,2020_Jul_20_2230,sonority,2020.1.3,60.01110294
aoiConditions/train2Block1.xlsx,aoiConditions/train2Block1Test.xlsx,,,trainingaudio/03_kikita3.wav,pngimages/03_box.png,trainingaudio/26_kapako1.wav,pngimages/26_pineapple.png,-0.5,0.5,,,,,,,,,,,,,,,,0,0,0,0,,,,,0,1,1,1,,,,,,,,,,,,,,,,,,,,,,,,,,,,,,,,,,,,,,,,,,,136.4054829,None,j,0.217065518,137.3894342,None,136.3988907,None,136.3988907,None,,,,,,,,,,,,,,,,,,,,,,,,,,,,,,,,,,,,,,,,,,,,,,,,,,,,,,,,,,,1,1,2020_Jul_20_2230,sonority,2020.1.3,60.01110294
aoiConditions/train2Block1.xlsx,aoiConditions/train2Block1Test.xlsx,,,trainingaudio/12_pokika3.wav,pngimages/12_pie.png,trainingaudio/03_kikita3.wav,pngimages/03_box.png,0.5,-0.5,,,,,,,,,,,,,,,,0,0,0,0,,,,,0,2,2,2,,,,,,,,,,,,,,,,,,,,,,,,,,,,,,,,,,,,,,,,,,,137.65661,None,f,0.197306339,138.6406896,None,137.6550955,None,137.6550955,None,,,,,,,,,,,,,,,,,,,,,,,,,,,,,,,,,,,,,,,,,,,,,,,,,,,,,,,,,,,1,1,2020_Jul_20_2230,sonority,2020.1.3,60.01110294
aoiConditions/train2Block1.xlsx,aoiConditions/train2Block1Test.xlsx,,,trainingaudio/10_tokiti1.wav,pngimages/10_backpack.png,trainingaudio/16_kokapi2.wav,pngimages/16_icecream.png,0.5,-0.5,,,,,,,,,,,,,,,,0,0,0,0,,,,,0,3,3,3,,,,,,,,,,,,,,,,,,,,,,,,,,,,,,,,,,,,,,,,,,,138.8911855,None,f,0.101681367,139.8778235,None,138.891455,None,138.891455,None,,,,,,,,,,,,,,,,,,,,,,,,,,,,,,,,,,,,,,,,,,,,,,,,,,,,,,,,,,,1,1,2020_Jul_20_2230,sonority,2020.1.3,60.01110294
aoiConditions/train2Block1.xlsx,aoiConditions/train2Block1Test.xlsx,,,trainingaudio/20_tatito1.wav,pngimages/20_pizza.png,trainingaudio/04_kitoti2.wav,pngimages/04_ladder.png,-0.5,0.5,,,,,,,,,,,,,,,,0,0,0,0,,,,,0,4,4,4,,,,,,,,,,,,,,,,,,,,,,,,,,,,,,,,,,,,,,,,,,,140.0419308,None,j,0.095802057,141.0426855,None,140.0418545,None,140.0418545,None,,,,,,,,,,,,,,,,,,,,,,,,,,,,,,,,,,,,,,,,,,,,,,,,,,,,,,,,,,,1,1,2020_Jul_20_2230,sonority,2020.1.3,60.01110294
aoiConditions/train2Block1.xlsx,aoiConditions/train2Block1Test.xlsx,,,trainingaudio/04_kitoti2.wav,pngimages/04_ladder.png,trainingaudio/12_pokika3.wav,pngimages/12_pie.png,-0.5,0.5,,,,,,,,,,,,,,,,0,0,0,0,,,,,0,5,5,5,,,,,,,,,,,,,,,,,,,,,,,,,,,,,,,,,,,,,,,,,,,141.1927951,None,j,0.482496489,142.1769876,None,141.1905129,None,141.1905129,None,,,,,,,,,,,,,,,,,,,,,,,,,,,,,,,,,,,,,,,,,,,,,,,,,,,,,,,,,,,1,1,2020_Jul_20_2230,sonority,2020.1.3,60.01110294
aoiConditions/train2Block1.xlsx,aoiConditions/train2Block1Test.xlsx,,,trainingaudio/16_kokapi2.wav,pngimages/16_icecream.png,trainingaudio/15_kopota3.wav,pngimages/15_barrel.png,-0.5,0.5,,,,,,,,,,,,,,,,0,0,0,0,,,,,0,6,6,6,,,,,,,,,,,,,,,,,,,,,,,,,,,,,,,,,,,,,,,,,,,142.7107804,None,j,0.311390101,143.6950514,None,142.7078639,None,142.7078639,None,,,,,,,,,,,,,,,,,,,,,,,,,,,,,,,,,,,,,,,,,,,,,,,,,,,,,,,,,,,1,1,2020_Jul_20_2230,sonority,2020.1.3,60.01110294
aoiConditions/train2Block1.xlsx,aoiConditions/train2Block1Test.xlsx,,,trainingaudio/05_titopo2.wav,pngimages/05_megaphone.png,trainingaudio/20_tatito1.wav,pngimages/20_pizza.png,-0.5,0.5,,,,,,,,,,,,,,,,0,0,0,0,,,,,0,7,7,7,,,,,,,,,,,,,,,,,,,,,,,,,,,,,,,,,,,,,,,,,,,144.0620389,None,j,0.764629367,145.0461521,None,144.0560628,None,144.0560628,None,,,,,,,,,,,,,,,,,,,,,,,,,,,,,,,,,,,,,,,,,,,,,,,,,,,,,,,,,,,1,1,2020_Jul_20_2230,sonority,2020.1.3,60.01110294
aoiConditions/train2Block1.xlsx,aoiConditions/train2Block1Test.xlsx,,,trainingaudio/15_kopota3.wav,pngimages/15_barrel.png,trainingaudio/10_tokiti1.wav,pngimages/10_backpack.png,0.5,-0.5,,,,,,,,,,,,,,,,0,0,0,0,,,,,0,8,8,8,,,,,,,,,,,,,,,,,,,,,,,,,,,,,,,,,,,,,,,,,,,145.8633585,None,j,0.288120554,146.8641593,None,145.869994,None,145.869994,None,,,,,,,,,,,,,,,,,,,,,,,,,,,,,,,,,,,,,,,,,,,,,,,,,,,,,,,,,,,1,1,2020_Jul_20_2230,sonority,2020.1.3,60.01110294
aoiConditions/train2Block1.xlsx,aoiConditions/train2Block1Test.xlsx,,,,,,,,,,,,,,,,,,,,,,,,0,0,0,0,,,,,,,,,,,,,,,,,,,,,,,,,,,,,,,,,,,,,,,,,,,,,,,,,,,,,,,,,,,,,,,,,,,,,,,,,,,,,,,,,,,,,,,,,,,,,,,,,,,,,,,,,,,,,,,,,,,,,,,1,1,2020_Jul_20_2230,sonority,2020.1.3,60.01110294
aoiConditions/train2Block2.xlsx,aoiConditions/train2Block2Test.xlsx,trainingaudio/02_pitito3.wav,pngimages/02_pallet.png,,,,,,,,,,,,,,,,,,,,,,0,1,1,1,0,0,0,0,,,,,,,,,,,,,,,,,,,,,,,,,,,,,,,,,,,,,,,,,,,147.197768,None,147.203305,None,,,,,,,,,,,,,,,,,,,,,,,,,,,,,,,,,,,,,,,,,,,,,,,,,,,,,,,,,,,,,,,,,,,,,1,1,2020_Jul_20_2230,sonority,2020.1.3,60.01110294
aoiConditions/train2Block2.xlsx,aoiConditions/train2Block2Test.xlsx,trainingaudio/27_pakapa1.wav,pngimages/27_kiwi.png,,,,,,,,,,,,,,,,,,,,,,0,1,1,1,0,1,1,1,,,,,,,,,,,,,,,,,,,,,,,,,,,,,,,,,,,,,,,,,,,148.2142108,None,148.2145829,148.2145829,,,,,,,,,,,,,,,,,,,,,,,,,,,,,,,,,,,,,,,,,,,,,,,,,,,,,,,,,,,,,,,,,,,,,1,1,2020_Jul_20_2230,sonority,2020.1.3,60.01110294
aoiConditions/train2Block2.xlsx,aoiConditions/train2Block2Test.xlsx,trainingaudio/09_tipata2.wav,pngimages/09_plane.png,,,,,,,,,,,,,,,,,,,,,,0,1,1,1,0,2,2,2,,,,,,,,,,,,,,,,,,,,,,,,,,,,,,,,,,,,,,,,,,,149.2321045,None,149.2368485,149.2368485,,,,,,,,,,,,,,,,,,,,,,,,,,,,,,,,,,,,,,,,,,,,,,,,,,,,,,,,,,,,,,,,,,,,,1,1,2020_Jul_20_2230,sonority,2020.1.3,60.01110294
aoiConditions/train2Block2.xlsx,aoiConditions/train2Block2Test.xlsx,trainingaudio/17_kotako2.wav,pngimages/17_cracker.png,,,,,,,,,,,,,,,,,,,,,,0,1,1,1,0,3,3,3,,,,,,,,,,,,,,,,,,,,,,,,,,,,,,,,,,,,,,,,,,,150.2661834,None,150.2567455,150.2567455,,,,,,,,,,,,,,,,,,,,,,,,,,,,,,,,,,,,,,,,,,,,,,,,,,,,,,,,,,,,,,,,,,,,,1,1,2020_Jul_20_2230,sonority,2020.1.3,60.01110294
aoiConditions/train2Block2.xlsx,aoiConditions/train2Block2Test.xlsx,trainingaudio/11_tokiko1.wav,pngimages/11_compass.png,,,,,,,,,,,,,,,,,,,,,,0,1,1,1,0,4,4,4,,,,,,,,,,,,,,,,,,,,,,,,,,,,,,,,,,,,,,,,,,,151.2837587,None,151.2755958,151.2755958,,,,,,,,,,,,,,,,,,,,,,,,,,,,,,,,,,,,,,,,,,,,,,,,,,,,,,,,,,,,,,,,,,,,,1,1,2020_Jul_20_2230,sonority,2020.1.3,60.01110294
aoiConditions/train2Block2.xlsx,aoiConditions/train2Block2Test.xlsx,trainingaudio/24_takopa1.wav,pngimages/24_banana.png,,,,,,,,,,,,,,,,,,,,,,0,1,1,1,0,5,5,5,,,,,,,,,,,,,,,,,,,,,,,,,,,,,,,,,,,,,,,,,,,152.3180054,None,152.3163983,152.3163983,,,,,,,,,,,,,,,,,,,,,,,,,,,,,,,,,,,,,,,,,,,,,,,,,,,,,,,,,,,,,,,,,,,,,1,1,2020_Jul_20_2230,sonority,2020.1.3,60.01110294
aoiConditions/train2Block2.xlsx,aoiConditions/train2Block2Test.xlsx,trainingaudio/08_tipako2.wav,pngimages/08_bell.png,,,,,,,,,,,,,,,,,,,,,,0,1,1,1,0,6,6,6,,,,,,,,,,,,,,,,,,,,,,,,,,,,,,,,,,,,,,,,,,,153.3186893,None,153.3233722,153.3233722,,,,,,,,,,,,,,,,,,,,,,,,,,,,,,,,,,,,,,,,,,,,,,,,,,,,,,,,,,,,,,,,,,,,,1,1,2020_Jul_20_2230,sonority,2020.1.3,60.01110294
aoiConditions/train2Block2.xlsx,aoiConditions/train2Block2Test.xlsx,trainingaudio/13_kopopi1.wav,pngimages/13_toast.png,,,,,,,,,,,,,,,,,,,,,,0,1,1,1,0,7,7,7,,,,,,,,,,,,,,,,,,,,,,,,,,,,,,,,,,,,,,,,,,,154.3362894,None,154.3411386,154.3411386,,,,,,,,,,,,,,,,,,,,,,,,,,,,,,,,,,,,,,,,,,,,,,,,,,,,,,,,,,,,,,,,,,,,,1,1,2020_Jul_20_2230,sonority,2020.1.3,60.01110294
aoiConditions/train2Block2.xlsx,aoiConditions/train2Block2Test.xlsx,trainingaudio/18_popata2.wav,pngimages/18_donut.png,,,,,,,,,,,,,,,,,,,,,,0,1,1,1,0,8,8,8,,,,,,,,,,,,,,,,,,,,,,,,,,,,,,,,,,,,,,,,,,,155.3705263,None,155.3600236,155.3600236,,,,,,,,,,,,,,,,,,,,,,,,,,,,,,,,,,,,,,,,,,,,,,,,,,,,,,,,,,,,,,,,,,,,,1,1,2020_Jul_20_2230,sonority,2020.1.3,60.01110294
aoiConditions/train2Block2.xlsx,aoiConditions/train2Block2Test.xlsx,,,trainingaudio/27_pakapa1.wav,pngimages/27_kiwi.png,trainingaudio/08_tipako2.wav,pngimages/08_bell.png,-0.5,0.5,,,,,,,,,,,,,,,,0,1,1,1,,,,,0,0,0,0,,,,,,,,,,,,,,,,,,,,,,,,,,,,,,,,,,,,,,,,,,,156.4047946,None,f,0.776898854,157.4064736,None,156.4118681,None,156.4118681,None,,,,,,,,,,,,,,,,,,,,,,,,,,,,,,,,,,,,,,,,,,,,,,,,,,,,,,,,,,,1,1,2020_Jul_20_2230,sonority,2020.1.3,60.01110294
aoiConditions/train2Block2.xlsx,aoiConditions/train2Block2Test.xlsx,,,trainingaudio/02_pitito3.wav,pngimages/02_pallet.png,trainingaudio/24_takopa1.wav,pngimages/24_banana.png,0.5,-0.5,,,,,,,,,,,,,,,,0,1,1,1,,,,,0,1,1,1,,,,,,,,,,,,,,,,,,,,,,,,,,,,,,,,,,,,,,,,,,,158.2404986,None,j,0.024562761,159.2409958,None,158.2433119,None,158.2433119,None,,,,,,,,,,,,,,,,,,,,,,,,,,,,,,,,,,,,,,,,,,,,,,,,,,,,,,,,,,,1,1,2020_Jul_20_2230,sonority,2020.1.3,60.01110294
aoiConditions/train2Block2.xlsx,aoiConditions/train2Block2Test.xlsx,,,trainingaudio/08_tipako2.wav,pngimages/08_bell.png,trainingaudio/18_popata2.wav,pngimages/18_donut.png,0.5,-0.5,,,,,,,,,,,,,,,,0,1,1,1,,,,,0,2,2,2,,,,,,,,,,,,,,,,,,,,,,,,,,,,,,,,,,,,,,,,,,,159.3077656,None,j,0.14725461,160.2923223,None,159.307407,None,159.307407,None,,,,,,,,,,,,,,,,,,,,,,,,,,,,,,,,,,,,,,,,,,,,,,,,,,,,,,,,,,,1,1,2020_Jul_20_2230,sonority,2020.1.3,60.01110294
aoiConditions/train2Block2.xlsx,aoiConditions/train2Block2Test.xlsx,,,trainingaudio/18_popata2.wav,pngimages/18_donut.png,trainingaudio/27_pakapa1.wav,pngimages/27_kiwi.png,-0.5,0.5,,,,,,,,,,,,,,,,0,1,1,1,,,,,0,3,3,3,,,,,,,,,,,,,,,,,,,,,,,,,,,,,,,,,,,,,,,,,,,160.4753801,None,j,0.997789642,161.4597944,None,160.4689546,None,160.4689546,None,,,,,,,,,,,,,,,,,,,,,,,,,,,,,,,,,,,,,,,,,,,,,,,,,,,,,,,,,,,1,1,2020_Jul_20_2230,sonority,2020.1.3,60.01110294
aoiConditions/train2Block2.xlsx,aoiConditions/train2Block2Test.xlsx,,,trainingaudio/24_takopa1.wav,pngimages/24_banana.png,trainingaudio/17_kotako2.wav,pngimages/17_cracker.png,-0.5,0.5,,,,,,,,,,,,,,,,0,1,1,1,,,,,0,4,4,4,,,,,,,,,,,,,,,,,,,,,,,,,,,,,,,,,,,,,,,,,,,162.5106565,None,j,1.344115404,163.5114592,None,162.5167155,None,162.5167155,None,,,,,,,,,,,,,,,,,,,,,,,,,,,,,,,,,,,,,,,,,,,,,,,,,,,,,,,,,,,1,1,2020_Jul_20_2230,sonority,2020.1.3,60.01110294
aoiConditions/train2Block2.xlsx,aoiConditions/train2Block2Test.xlsx,,,trainingaudio/09_tipata2.wav,pngimages/09_plane.png,trainingaudio/11_tokiko1.wav,pngimages/11_compass.png,0.5,-0.5,,,,,,,,,,,,,,,,0,1,1,1,,,,,0,5,5,5,,,,,,,,,,,,,,,,,,,,,,,,,,,,,,,,,,,,,,,,,,,164.9125071,None,j,0.33860348,165.8966826,None,164.9071533,None,164.9071533,None,,,,,,,,,,,,,,,,,,,,,,,,,,,,,,,,,,,,,,,,,,,,,,,,,,,,,,,,,,,1,1,2020_Jul_20_2230,sonority,2020.1.3,60.01110294
aoiConditions/train2Block2.xlsx,aoiConditions/train2Block2Test.xlsx,,,trainingaudio/17_kotako2.wav,pngimages/17_cracker.png,trainingaudio/09_tipata2.wav,pngimages/09_plane.png,0.5,-0.5,,,,,,,,,,,,,,,,0,1,1,1,,,,,0,6,6,6,,,,,,,,,,,,,,,,,,,,,,,,,,,,,,,,,,,,,,,,,,,166.2969689,None,j,0.16069271,167.2810609,None,166.291242,None,166.291242,None,,,,,,,,,,,,,,,,,,,,,,,,,,,,,,,,,,,,,,,,,,,,,,,,,,,,,,,,,,,1,1,2020_Jul_20_2230,sonority,2020.1.3,60.01110294
aoiConditions/train2Block2.xlsx,aoiConditions/train2Block2Test.xlsx,,,trainingaudio/13_kopopi1.wav,pngimages/13_toast.png,trainingaudio/02_pitito3.wav,pngimages/02_pallet.png,-0.5,0.5,,,,,,,,,,,,,,,,0,1,1,1,,,,,0,7,7,7,,,,,,,,,,,,,,,,,,,,,,,,,,,,,,,,,,,,,,,,,,,167.4812134,None,f,0.083879567,168.4822511,None,167.4850138,None,167.4850138,None,,,,,,,,,,,,,,,,,,,,,,,,,,,,,,,,,,,,,,,,,,,,,,,,,,,,,,,,,,,1,1,2020_Jul_20_2230,sonority,2020.1.3,60.01110294
aoiConditions/train2Block2.xlsx,aoiConditions/train2Block2Test.xlsx,,,trainingaudio/11_tokiko1.wav,pngimages/11_compass.png,trainingaudio/13_kopopi1.wav,pngimages/13_toast.png,-0.5,0.5,,,,,,,,,,,,,,,,0,1,1,1,,,,,0,8,8,8,,,,,,,,,,,,,,,,,,,,,,,,,,,,,,,,,,,,,,,,,,,168.5991877,None,j,0.348909547,169.5832264,None,168.5937144,None,168.5937144,None,,,,,,,,,,,,,,,,,,,,,,,,,,,,,,,,,,,,,,,,,,,,,,,,,,,,,,,,,,,1,1,2020_Jul_20_2230,sonority,2020.1.3,60.01110294
aoiConditions/train2Block2.xlsx,aoiConditions/train2Block2Test.xlsx,,,,,,,,,,,,,,,,,,,,,,,,0,1,1,1,,,,,,,,,,,,,,,,,,,,,,,,,,,,,,,,,,,,,,,,,,,,,,,,,,,,,,,,,,,,,,,,,,,,,,,,,,,,,,,,,,,,,,,,,,,,,,,,,,,,,,,,,,,,,,,,,,,,,,,1,1,2020_Jul_20_2230,sonority,2020.1.3,60.01110294
aoiConditions/train2Block3.xlsx,aoiConditions/train2Block3Test.xlsx,trainingaudio/01_kitipi1.wav,pngimages/01_gift.png,,,,,,,,,,,,,,,,,,,,,,0,2,2,2,0,0,0,0,,,,,,,,,,,,,,,,,,,,,,,,,,,,,,,,,,,,,,,,,,,169.9835927,None,169.9784028,None,,,,,,,,,,,,,,,,,,,,,,,,,,,,,,,,,,,,,,,,,,,,,,,,,,,,,,,,,,,,,,,,,,,,,1,1,2020_Jul_20_2230,sonority,2020.1.3,60.01110294
aoiConditions/train2Block3.xlsx,aoiConditions/train2Block3Test.xlsx,trainingaudio/19_papipi1.wav,pngimages/19_burger.png,,,,,,,,,,,,,,,,,,,,,,0,2,2,2,0,1,1,1,,,,,,,,,,,,,,,,,,,,,,,,,,,,,,,,,,,,,,,,,,,171.0001638,None,170.9914017,170.9914017,,,,,,,,,,,,,,,,,,,,,,,,,,,,,,,,,,,,,,,,,,,,,,,,,,,,,,,,,,,,,,,,,,,,,1,1,2020_Jul_20_2230,sonority,2020.1.3,60.01110294
aoiConditions/train2Block3.xlsx,aoiConditions/train2Block3Test.xlsx,trainingaudio/21_papika1.wav,pngimages/21_cheese.png,,,,,,,,,,,,,,,,,,,,,,0,2,2,2,0,2,2,2,,,,,,,,,,,,,,,,,,,,,,,,,,,,,,,,,,,,,,,,,,,172.0175593,None,172.0112878,172.0112878,,,,,,,,,,,,,,,,,,,,,,,,,,,,,,,,,,,,,,,,,,,,,,,,,,,,,,,,,,,,,,,,,,,,,1,1,2020_Jul_20_2230,sonority,2020.1.3,60.01110294
aoiConditions/train2Block3.xlsx,aoiConditions/train2Block3Test.xlsx,trainingaudio/07_pitapi2.wav,pngimages/07_suitcase.png,,,,,,,,,,,,,,,,,,,,,,0,2,2,2,0,3,3,3,,,,,,,,,,,,,,,,,,,,,,,,,,,,,,,,,,,,,,,,,,,173.035127,None,173.0244027,173.0244027,,,,,,,,,,,,,,,,,,,,,,,,,,,,,,,,,,,,,,,,,,,,,,,,,,,,,,,,,,,,,,,,,,,,,1,1,2020_Jul_20_2230,sonority,2020.1.3,60.01110294
aoiConditions/train2Block3.xlsx,aoiConditions/train2Block3Test.xlsx,trainingaudio/06_titoka3.wav,pngimages/06_tent.png,,,,,,,,,,,,,,,,,,,,,,0,2,2,2,0,4,4,4,,,,,,,,,,,,,,,,,,,,,,,,,,,,,,,,,,,,,,,,,,,174.0527612,None,174.0440501,174.0440501,,,,,,,,,,,,,,,,,,,,,,,,,,,,,,,,,,,,,,,,,,,,,,,,,,,,,,,,,,,,,,,,,,,,,1,1,2020_Jul_20_2230,sonority,2020.1.3,60.01110294
aoiConditions/train2Block3.xlsx,aoiConditions/train2Block3Test.xlsx,trainingaudio/14_pokoto1.wav,pngimages/14_coffee.png,,,,,,,,,,,,,,,,,,,,,,0,2,2,2,0,5,5,5,,,,,,,,,,,,,,,,,,,,,,,,,,,,,,,,,,,,,,,,,,,175.0702711,None,175.0620512,175.0620512,,,,,,,,,,,,,,,,,,,,,,,,,,,,,,,,,,,,,,,,,,,,,,,,,,,,,,,,,,,,,,,,,,,,,1,1,2020_Jul_20_2230,sonority,2020.1.3,60.01110294
aoiConditions/train2Block3.xlsx,aoiConditions/train2Block3Test.xlsx,trainingaudio/25_tapapi1.wav,pngimages/25_apple.png,,,,,,,,,,,,,,,,,,,,,,0,2,2,2,0,6,6,6,,,,,,,,,,,,,,,,,,,,,,,,,,,,,,,,,,,,,,,,,,,176.0876394,None,176.0801766,176.0801766,,,,,,,,,,,,,,,,,,,,,,,,,,,,,,,,,,,,,,,,,,,,,,,,,,,,,,,,,,,,,,,,,,,,,1,1,2020_Jul_20_2230,sonority,2020.1.3,60.01110294
aoiConditions/train2Block3.xlsx,aoiConditions/train2Block3Test.xlsx,trainingaudio/22_kakoki1.wav,pngimages/22_egg.png,,,,,,,,,,,,,,,,,,,,,,0,2,2,2,0,7,7,7,,,,,,,,,,,,,,,,,,,,,,,,,,,,,,,,,,,,,,,,,,,177.1051826,None,177.1108173,177.1108173,,,,,,,,,,,,,,,,,,,,,,,,,,,,,,,,,,,,,,,,,,,,,,,,,,,,,,,,,,,,,,,,,,,,,1,1,2020_Jul_20_2230,sonority,2020.1.3,60.01110294
aoiConditions/train2Block3.xlsx,aoiConditions/train2Block3Test.xlsx,trainingaudio/23_patoko1.wav,pngimages/23_lemon.png,,,,,,,,,,,,,,,,,,,,,,0,2,2,2,0,8,8,8,,,,,,,,,,,,,,,,,,,,,,,,,,,,,,,,,,,,,,,,,,,178.1394103,None,178.1308808,178.1308808,,,,,,,,,,,,,,,,,,,,,,,,,,,,,,,,,,,,,,,,,,,,,,,,,,,,,,,,,,,,,,,,,,,,,1,1,2020_Jul_20_2230,sonority,2020.1.3,60.01110294
aoiConditions/train2Block3.xlsx,aoiConditions/train2Block3Test.xlsx,,,trainingaudio/21_papika1.wav,pngimages/21_cheese.png,trainingaudio/06_titoka3.wav,pngimages/06_tent.png,0.5,-0.5,,,,,,,,,,,,,,,,0,2,2,2,,,,,0,0,0,0,,,,,,,,,,,,,,,,,,,,,,,,,,,,,,,,,,,,,,,,,,,179.1901597,None,f,0.343754814,180.1916891,None,179.1928482,None,179.1928482,None,,,,,,,,,,,,,,,,,,,,,,,,,,,,,,,,,,,,,,,,,,,,,,,,,,,,,,,,,,,1,1,2020_Jul_20_2230,sonority,2020.1.3,60.01110294
aoiConditions/train2Block3.xlsx,aoiConditions/train2Block3Test.xlsx,,,trainingaudio/23_patoko1.wav,pngimages/23_lemon.png,trainingaudio/25_tapapi1.wav,pngimages/25_apple.png,0.5,-0.5,,,,,,,,,,,,,,,,0,2,2,2,,,,,0,1,1,1,,,,,,,,,,,,,,,,,,,,,,,,,,,,,,,,,,,,,,,,,,,180.5753431,None,j,0.476958134,181.5594863,None,180.5729105,None,180.5729105,None,,,,,,,,,,,,,,,,,,,,,,,,,,,,,,,,,,,,,,,,,,,,,,,,,,,,,,,,,,,1,1,2020_Jul_20_2230,sonority,2020.1.3,60.01110294
aoiConditions/train2Block3.xlsx,aoiConditions/train2Block3Test.xlsx,,,trainingaudio/14_pokoto1.wav,pngimages/14_coffee.png,trainingaudio/01_kitipi1.wav,pngimages/01_gift.png,0.5,-0.5,,,,,,,,,,,,,,,,0,2,2,2,,,,,0,2,2,2,,,,,,,,,,,,,,,,,,,,,,,,,,,,,,,,,,,,,,,,,,,182.0767247,None,j,0.076007763,183.0775222,None,182.077987,None,182.077987,None,,,,,,,,,,,,,,,,,,,,,,,,,,,,,,,,,,,,,,,,,,,,,,,,,,,,,,,,,,,1,1,2020_Jul_20_2230,sonority,2020.1.3,60.01110294
aoiConditions/train2Block3.xlsx,aoiConditions/train2Block3Test.xlsx,,,trainingaudio/06_titoka3.wav,pngimages/06_tent.png,trainingaudio/07_pitapi2.wav,pngimages/07_suitcase.png,-0.5,0.5,,,,,,,,,,,,,,,,0,2,2,2,,,,,0,3,3,3,,,,,,,,,,,,,,,,,,,,,,,,,,,,,,,,,,,,,,,,,,,183.1942475,None,j,0.015838003,184.1784518,None,183.1909777,None,183.1909777,None,,,,,,,,,,,,,,,,,,,,,,,,,,,,,,,,,,,,,,,,,,,,,,,,,,,,,,,,,,,1,1,2020_Jul_20_2230,sonority,2020.1.3,60.01110294
aoiConditions/train2Block3.xlsx,aoiConditions/train2Block3Test.xlsx,,,trainingaudio/07_pitapi2.wav,pngimages/07_suitcase.png,trainingaudio/14_pokoto1.wav,pngimages/14_coffee.png,-0.5,0.5,,,,,,,,,,,,,,,,0,2,2,2,,,,,0,4,4,4,,,,,,,,,,,,,,,,,,,,,,,,,,,,,,,,,,,,,,,,,,,184.2286923,None,j,0.900763091,185.2127483,None,184.2241346,None,184.2241346,None,,,,,,,,,,,,,,,,,,,,,,,,,,,,,,,,,,,,,,,,,,,,,,,,,,,,,,,,,,,1,1,2020_Jul_20_2230,sonority,2020.1.3,60.01110294
aoiConditions/train2Block3.xlsx,aoiConditions/train2Block3Test.xlsx,,,trainingaudio/25_tapapi1.wav,pngimages/25_apple.png,trainingaudio/23_patoko1.wav,pngimages/23_lemon.png,-0.5,0.5,,,,,,,,,,,,,,,,0,2,2,2,,,,,0,5,5,5,,,,,,,,,,,,,,,,,,,,,,,,,,,,,,,,,,,,,,,,,,,186.1468626,None,f,0.199958844,187.1475125,None,186.1469865,None,186.1469865,None,,,,,,,,,,,,,,,,,,,,,,,,,,,,,,,,,,,,,,,,,,,,,,,,,,,,,,,,,,,1,1,2020_Jul_20_2230,sonority,2020.1.3,60.01110294
aoiConditions/train2Block3.xlsx,aoiConditions/train2Block3Test.xlsx,,,trainingaudio/22_kakoki1.wav,pngimages/22_egg.png,trainingaudio/19_papipi1.wav,pngimages/19_burger.png,-0.5,0.5,,,,,,,,,,,,,,,,0,2,2,2,,,,,0,6,6,6,,,,,,,,,,,,,,,,,,,,,,,,,,,,,,,,,,,,,,,,,,,187.3980185,None,j,0.752155609,188.3654193,None,187.3896041,None,187.3896041,None,,,,,,,,,,,,,,,,,,,,,,,,,,,,,,,,,,,,,,,,,,,,,,,,,,,,,,,,,,,1,1,2020_Jul_20_2230,sonority,2020.1.3,60.01110294
aoiConditions/train2Block3.xlsx,aoiConditions/train2Block3Test.xlsx,,,trainingaudio/19_papipi1.wav,pngimages/19_burger.png,trainingaudio/21_papika1.wav,pngimages/21_cheese.png,0.5,-0.5,,,,,,,,,,,,,,,,0,2,2,2,,,,,0,7,7,7,,,,,,,,,,,,,,,,,,,,,,,,,,,,,,,,,,,,,,,,,,,189.1661975,None,f,0.646769041,190.1666645,None,189.1676413,None,189.1676413,None,,,,,,,,,,,,,,,,,,,,,,,,,,,,,,,,,,,,,,,,,,,,,,,,,,,,,,,,,,,1,1,2020_Jul_20_2230,sonority,2020.1.3,60.01110294
aoiConditions/train2Block3.xlsx,aoiConditions/train2Block3Test.xlsx,,,trainingaudio/01_kitipi1.wav,pngimages/01_gift.png,trainingaudio/22_kakoki1.wav,pngimages/22_egg.png,-0.5,0.5,,,,,,,,,,,,,,,,0,2,2,2,,,,,0,8,8,8,,,,,,,,,,,,,,,,,,,,,,,,,,,,,,,,,,,,,,,,,,,190.8673594,None,f,1.597899518,191.8516481,None,190.8652452,None,190.8652452,None,,,,,,,,,,,,,,,,,,,,,,,,,,,,,,,,,,,,,,,,,,,,,,,,,,,,,,,,,,,1,1,2020_Jul_20_2230,sonority,2020.1.3,60.01110294
aoiConditions/train2Block3.xlsx,aoiConditions/train2Block3Test.xlsx,,,,,,,,,,,,,,,,,,,,,,,,0,2,2,2,,,,,,,,,,,,,,,,,,,,,,,,,,,,,,,,,,,,,,,,,,,,,,,,,,,,,,,,,,,,,,,,,,,,,,,,,,,,,,,,,,,,,,,,,,,,,,,,,,,,,,,,,,,,,,,,,,,,,,,1,1,2020_Jul_20_2230,sonority,2020.1.3,60.01110294
,,,,,,,,,,,,,,,,,,,,,,,,,,,,,,,,,,,,,,,,,,,,,,,,,,,,,,,,,,,,,,,,,,,,,,,,,,,,,,,,,,,,,,,,,193.4680631,None,f,1.685246409,193.4680631,None,,,,,,,,,,,,,,,,,,,,,,,,,,,,,,,,,,,,,,,,,,,,,,,,,,,,,1,1,2020_Jul_20_2230,sonority,2020.1.3,60.01110294
,,,pngimages/20_pizza.png,,,,,,,trainingaudio/20_tatito3.wav,trainingaudio/20_tatito1.wav,2,,,,,,,,,,,,,,,,,,,,,,,,,0,0,0,0,,,,,,,,,,,,,,,,,,,,,,,,,,,,,,,,,,,,,,,,,,,,,,,,,,,,,,,None,None,None,None,None,None,None,None,195.2362866,None,195.2391736,196.2545027,196.2381217,None,196.2377831,None,195.2391736,196.2545027,196.2381217,197.2385823,197.2385823,None,j,3.082794777,197.2385823,None,195.2391736,None,195.2391736,None,195.2391736,None,,,,,,,,,,,,,,,,,,,,,1,1,2020_Jul_20_2230,sonority,2020.1.3,60.01110294
,,,pngimages/14_coffee.png,,,,,,,trainingaudio/14_pokoto1.wav,trainingaudio/14_pokoto2.wav,1,,,,,,,,,,,,,,,,,,,,,,,,,0,1,1,1,,,,,,,,,,,,,,,,,,,,,,,,,,,,,,,,,,,,,,,,,,,,,,,,,,,,,,,,,,,,,,,200.3745779,None,200.3807736,201.3918964,201.3757393,None,201.3753422,None,200.3807736,201.3918964,201.3757393,202.3762113,202.3762113,None,f,1.61219095,202.3762113,None,200.3807736,None,200.3807736,None,200.3807736,None,,,,,,,,,,,,,,,,,,,,,1,1,2020_Jul_20_2230,sonority,2020.1.3,60.01110294
,,,pngimages/24_banana.png,,,,,,,trainingaudio/24_takopa3.wav,trainingaudio/24_takopa1.wav,2,,,,,,,,,,,,,,,,,,,,,,,,,0,2,2,2,,,,,,,,,,,,,,,,,,,,,,,,,,,,,,,,,,,,,,,,,,,,,,,,,,,,,,,,,,,,,,,204.0614764,None,204.055484,205.0616975,205.045554,None,205.045135,None,204.055484,205.0616975,205.045554,206.0461793,206.0461793,None,j,0.857186117,206.0461793,None,204.055484,None,204.055484,None,204.055484,None,,,,,,,,,,,,,,,,,,,,,1,1,2020_Jul_20_2230,sonority,2020.1.3,60.01110294
,,,pngimages/26_pineapple.png,,,,,,,trainingaudio/26_kapako1.wav,trainingaudio/26_kapako2.wav,1,,,,,,,,,,,,,,,,,,,,,,,,,0,3,3,3,,,,,,,,,,,,,,,,,,,,,,,,,,,,,,,,,,,,,,,,,,,,,,,,,,,,,,,,,,,,,,,206.9801059,None,206.9762128,207.9807879,207.9645803,None,207.9640726,None,206.9762128,207.9807879,207.9645803,208.9651606,208.9651606,None,j,2.022373926,208.9651606,None,206.9762128,None,206.9762128,None,206.9762128,None,,,,,,,,,,,,,,,,,,,,,1,1,2020_Jul_20_2230,sonority,2020.1.3,60.01110294
,,,pngimages/19_burger.png,,,,,,,trainingaudio/19_papipi2.wav,trainingaudio/19_papipi1.wav,2,,,,,,,,,,,,,,,,,,,,,,,,,0,4,4,4,,,,,,,,,,,,,,,,,,,,,,,,,,,,,,,,,,,,,,,,,,,,,,,,,,,,,,,,,,,,,,,211.0668641,None,211.0665297,212.0675994,212.0514374,None,212.0509433,None,211.0665297,212.0675994,212.0514374,213.0518985,213.0518985,None,j,2.849467234,213.0518985,None,211.0665297,None,211.0665297,None,211.0665297,None,,,,,,,,,,,,,,,,,,,,,1,1,2020_Jul_20_2230,sonority,2020.1.3,60.01110294
,,,pngimages/15_barrel.png,,,,,,,trainingaudio/15_kopota3.wav,trainingaudio/15_kopota1.wav,1,,,,,,,,,,,,,,,,,,,,,,,,,0,5,5,5,,,,,,,,,,,,,,,,,,,,,,,,,,,,,,,,,,,,,,,,,,,,,,,,,,,,,,,,,,,,,,,215.9710398,None,215.9780452,216.988406,216.9721651,None,216.9717348,None,215.9780452,216.988406,216.9721651,217.9728081,217.9728081,None,j,1.810545453,217.9728081,None,215.9780452,None,215.9780452,None,215.9780452,None,,,,,,,,,,,,,,,,,,,,,1,1,2020_Jul_20_2230,sonority,2020.1.3,60.01110294
,,,pngimages/04_ladder.png,,,,,,,trainingaudio/04_kitoti2.wav,trainingaudio/04_kitoti1.wav,1,,,,,,,,,,,,,,,,,,,,,,,,,0,6,6,6,,,,,,,,,,,,,,,,,,,,,,,,,,,,,,,,,,,,,,,,,,,,,,,,,,,,,,,,,,,,,,,219.8406833,None,219.8386907,220.8415294,220.8252065,None,220.824939,None,219.8386907,220.8415294,220.8252065,221.8257778,221.8257778,None,f,0.674609959,221.8257778,None,219.8386907,None,219.8386907,None,219.8386907,None,,,,,,,,,,,,,,,,,,,,,1,1,2020_Jul_20_2230,sonority,2020.1.3,60.01110294
,,,pngimages/16_icecream.png,,,,,,,trainingaudio/16_kokapi2.wav,trainingaudio/16_kokapi1.wav,1,,,,,,,,,,,,,,,,,,,,,,,,,0,7,7,7,,,,,,,,,,,,,,,,,,,,,,,,,,,,,,,,,,,,,,,,,,,,,,,,,,,,,,,,,,,,,,,222.5429422,None,222.5455125,223.5604054,223.54463,None,223.5437508,None,222.5455125,223.5604054,223.54463,224.5446935,224.5446935,None,j,0.179409388,224.5446935,None,222.5455125,None,222.5455125,None,222.5455125,None,,,,,,,,,,,,,,,,,,,,,1,1,2020_Jul_20_2230,sonority,2020.1.3,60.01110294
,,,pngimages/25_apple.png,,,,,,,trainingaudio/25_tapapi1.wav,trainingaudio/25_tapapi2.wav,1,,,,,,,,,,,,,,,,,,,,,,,,,0,8,8,8,,,,,,,,,,,,,,,,,,,,,,,,,,,,,,,,,,,,,,,,,,,,,,,,,,,,,,,,,,,,,,,224.7947979,None,224.8033612,225.8124806,225.7795053,None,225.7789961,None,224.8033612,225.8124806,225.7795053,226.7798625,226.7798625,None,f,1.136541889,226.7798625,None,224.8033612,None,224.8033612,None,224.8033612,None,,,,,,,,,,,,,,,,,,,,,1,1,2020_Jul_20_2230,sonority,2020.1.3,60.01110294
,,,pngimages/06_tent.png,,,,,,,trainingaudio/06_titoka2.wav,trainingaudio/06_titoka3.wav,2,,,,,,,,,,,,,,,,,,,,,,,,,0,9,9,9,,,,,,,,,,,,,,,,,,,,,,,,,,,,,,,,,,,,,,,,,,,,,,,,,,,,,,,,,,,,,,,227.9808775,None,227.9774667,228.9815692,228.9653354,None,228.9648734,None,227.9774667,228.9815692,228.9653354,229.9659131,229.9659131,None,j,1.414423963,229.9659131,None,227.9774667,None,227.9774667,None,227.9774667,None,,,,,,,,,,,,,,,,,,,,,1,1,2020_Jul_20_2230,sonority,2020.1.3,60.01110294
,,,pngimages/18_donut.png,,,,,,,trainingaudio/18_popata2.wav,trainingaudio/18_popata1.wav,1,,,,,,,,,,,,,,,,,,,,,,,,,0,10,10,10,,,,,,,,,,,,,,,,,,,,,,,,,,,,,,,,,,,,,,,,,,,,,,,,,,,,,,,,,,,,,,,231.433615,None,231.4309503,232.4346959,232.4181975,None,232.4177657,None,231.4309503,232.4346959,232.4181975,233.4186906,233.4186906,None,f,0.601639833,233.4186906,None,231.4309503,None,231.4309503,None,231.4309503,None,,,,,,,,,,,,,,,,,,,,,1,1,2020_Jul_20_2230,sonority,2020.1.3,60.01110294
,,,pngimages/12_pie.png,,,,,,,trainingaudio/12_pokika1.wav,trainingaudio/12_pokika3.wav,2,,,,,,,,,,,,,,,,,,,,,,,,,0,11,11,11,,,,,,,,,,,,,,,,,,,,,,,,,,,,,,,,,,,,,,,,,,,,,,,,,,,,,,,,,,,,,,,234.102661,None,234.1004841,235.1033053,235.0870735,None,235.0866451,None,234.1004841,235.1033053,235.0870735,236.0876044,236.0876044,None,j,0.215849708,236.0876044,None,234.1004841,None,234.1004841,None,234.1004841,None,,,,,,,,,,,,,,,,,,,,,1,1,2020_Jul_20_2230,sonority,2020.1.3,60.01110294
,,,pngimages/13_toast.png,,,,,,,trainingaudio/13_kopopi1.wav,trainingaudio/13_kopopi2.wav,1,,,,,,,,,,,,,,,,,,,,,,,,,0,12,12,12,,,,,,,,,,,,,,,,,,,,,,,,,,,,,,,,,,,,,,,,,,,,,,,,,,,,,,,,,,,,,,,236.3544333,None,236.3567764,237.3721168,237.3559371,None,237.3551964,None,236.3567764,237.3721168,237.3559371,238.3561972,238.3561972,None,f,0.754129978,238.3561972,None,236.3567764,None,236.3567764,None,236.3567764,None,,,,,,,,,,,,,,,,,,,,,1,1,2020_Jul_20_2230,sonority,2020.1.3,60.01110294
,,,pngimages/23_lemon.png,,,,,,,trainingaudio/23_patoko2.wav,trainingaudio/23_patoko1.wav,2,,,,,,,,,,,,,,,,,,,,,,,,,0,13,13,13,,,,,,,,,,,,,,,,,,,,,,,,,,,,,,,,,,,,,,,,,,,,,,,,,,,,,,,,,,,,,,,239.1733893,None,239.1709048,240.1740738,240.157979,None,240.1575401,None,239.1709048,240.1740738,240.157979,241.1583196,241.1583196,None,j,0.140016765,241.1583196,None,239.1709048,None,239.1709048,None,239.1709048,None,,,,,,,,,,,,,,,,,,,,,1,1,2020_Jul_20_2230,sonority,2020.1.3,60.01110294
,,,pngimages/08_bell.png,,,,,,,trainingaudio/08_tipako2.wav,trainingaudio/08_tipako1.wav,1,,,,,,,,,,,,,,,,,,,,,,,,,0,14,14,14,,,,,,,,,,,,,,,,,,,,,,,,,,,,,,,,,,,,,,,,,,,,,,,,,,,,,,,,,,,,,,,241.3585232,None,241.3528402,242.3593315,242.3429936,None,242.3429968,None,241.3528402,242.3593315,242.3429936,243.3436321,243.3436321,None,j,0.021598375,243.3436321,None,241.3528402,None,241.3528402,None,241.3528402,None,,,,,,,,,,,,,,,,,,,,,1,1,2020_Jul_20_2230,sonority,2020.1.3,60.01110294
,,,pngimages/09_plane.png,,,,,,,trainingaudio/09_tipata2.wav,trainingaudio/09_tipata3.wav,1,,,,,,,,,,,,,,,,,,,,,,,,,0,15,15,15,,,,,,,,,,,,,,,,,,,,,,,,,,,,,,,,,,,,,,,,,,,,,,,,,,,,,,,,,,,,,,,243.4437528,None,243.442252,244.4444326,244.4281789,None,244.427684,None,243.442252,244.4444326,244.4281789,245.4285561,245.4285561,None,f,0.528872846,245.4285561,None,243.442252,None,243.442252,None,243.442252,None,,,,,,,,,,,,,,,,,,,,,1,1,2020_Jul_20_2230,sonority,2020.1.3,60.01110294
,,,pngimages/21_cheese.png,,,,,,,trainingaudio/21_papika1.wav,trainingaudio/21_papika3.wav,1,,,,,,,,,,,,,,,,,,,,,,,,,0,16,16,16,,,,,,,,,,,,,,,,,,,,,,,,,,,,,,,,,,,,,,,,,,,,,,,,,,,,,,,,,,,,,,,246.029029,None,246.0216127,247.029884,247.0136235,None,247.013308,None,246.0216127,247.029884,247.0136235,248.0140811,248.0140811,None,j,0.496035402,248.0140811,None,246.0216127,None,246.0216127,None,246.0216127,None,,,,,,,,,,,,,,,,,,,,,1,1,2020_Jul_20_2230,sonority,2020.1.3,60.01110294
,,,pngimages/10_backpack.png,,,,,,,trainingaudio/10_tokiti1.wav,trainingaudio/10_tokiti3.wav,1,,,,,,,,,,,,,,,,,,,,,,,,,0,17,17,17,,,,,,,,,,,,,,,,,,,,,,,,,,,,,,,,,,,,,,,,,,,,,,,,,,,,,,,,,,,,,,,248.564492,None,248.5612674,249.5654325,249.5490255,None,249.5486401,None,248.5612674,249.5654325,249.5490255,250.5496911,250.5496911,None,j,0.506758696,250.5496911,None,248.5612674,None,248.5612674,None,248.5612674,None,,,,,,,,,,,,,,,,,,,,,1,1,2020_Jul_20_2230,sonority,2020.1.3,60.01110294
,,,pngimages/05_megaphone.png,,,,,,,trainingaudio/05_titopo1.wav,trainingaudio/05_titopo2.wav,2,,,,,,,,,,,,,,,,,,,,,,,,,0,18,18,18,,,,,,,,,,,,,,,,,,,,,,,,,,,,,,,,,,,,,,,,,,,,,,,,,,,,,,,,,,,,,,,251.1168032,None,251.1228901,252.1341378,252.1179,None,252.1174508,None,251.1228901,252.1341378,252.1179,253.1184709,253.1184709,None,f,0.168900938,253.1184709,None,251.1228901,None,251.1228901,None,251.1228901,None,,,,,,,,,,,,,,,,,,,,,1,1,2020_Jul_20_2230,sonority,2020.1.3,60.01110294
,,,pngimages/07_suitcase.png,,,,,,,trainingaudio/07_pitapi2.wav,trainingaudio/07_pitapi3.wav,1,,,,,,,,,,,,,,,,,,,,,,,,,0,19,19,19,,,,,,,,,,,,,,,,,,,,,,,,,,,,,,,,,,,,,,,,,,,,,,,,,,,,,,,,,,,,,,,253.3518563,None,253.3474864,254.3526015,254.3363085,None,254.3360127,None,253.3474864,254.3526015,254.3363085,255.3370531,255.3370531,None,j,0.172308604,255.3370531,None,253.3474864,None,253.3474864,None,253.3474864,None,,,,,,,,,,,,,,,,,,,,,1,1,2020_Jul_20_2230,sonority,2020.1.3,60.01110294
,,,pngimages/17_cracker.png,,,,,,,trainingaudio/17_kotako1.wav,trainingaudio/17_kotako2.wav,2,,,,,,,,,,,,,,,,,,,,,,,,,0,20,20,20,,,,,,,,,,,,,,,,,,,,,,,,,,,,,,,,,,,,,,,,,,,,,,,,,,,,,,,,,,,,,,,255.5704514,None,255.5656235,256.5711777,256.5549331,None,256.5545443,None,255.5656235,256.5711777,256.5549331,257.555396,257.555396,None,j,2.004990863,257.555396,None,255.5656235,None,255.5656235,None,255.5656235,None,,,,,,,,,,,,,,,,,,,,,1,1,2020_Jul_20_2230,sonority,2020.1.3,60.01110294
,,,pngimages/11_compass.png,,,,,,,trainingaudio/11_tokiko2.wav,trainingaudio/11_tokiko1.wav,2,,,,,,,,,,,,,,,,,,,,,,,,,0,21,21,21,,,,,,,,,,,,,,,,,,,,,,,,,,,,,,,,,,,,,,,,,,,,,,,,,,,,,,,,,,,,,,,259.640401,None,259.6387821,260.641063,260.6251254,None,260.6245244,None,259.6387821,260.641063,260.6251254,261.6255853,261.6255853,None,j,1.073728686,261.6255853,None,259.6387821,None,259.6387821,None,259.6387821,None,,,,,,,,,,,,,,,,,,,,,1,1,2020_Jul_20_2230,sonority,2020.1.3,60.01110294
,,,pngimages/02_pallet.png,,,,,,,trainingaudio/02_pitito3.wav,trainingaudio/02_pitito2.wav,1,,,,,,,,,,,,,,,,,,,,,,,,,0,22,22,22,,,,,,,,,,,,,,,,,,,,,,,,,,,,,,,,,,,,,,,,,,,,,,,,,,,,,,,,,,,,,,,262.7596046,None,262.7541145,263.7604375,263.7442536,None,263.7437965,None,262.7541145,263.7604375,263.7442536,264.7447988,264.7447988,None,j,5.772161725,264.7447988,None,262.7541145,None,262.7541145,None,262.7541145,None,,,,,,,,,,,,,,,,,,,,,1,1,2020_Jul_20_2230,sonority,2020.1.3,60.01110294
,,,pngimages/03_box.png,,,,,,,trainingaudio/03_kikita2.wav,trainingaudio/03_kikita3.wav,2,,,,,,,,,,,,,,,,,,,,,,,,,0,23,23,23,,,,,,,,,,,,,,,,,,,,,,,,,,,,,,,,,,,,,,,,,,,,,,,,,,,,,,,,,,,,,,,270.566136,None,270.5617801,271.5669111,271.550674,None,271.5502433,None,270.5617801,271.5669111,271.550674,272.5511705,272.5511705,None,j,0.312970654,272.5511705,None,270.5617801,None,270.5617801,None,270.5617801,None,,,,,,,,,,,,,,,,,,,,,1,1,2020_Jul_20_2230,sonority,2020.1.3,60.01110294
,,,pngimages/01_gift.png,,,,,,,trainingaudio/01_kitipi1.wav,trainingaudio/01_kitipi3.wav,1,,,,,,,,,,,,,,,,,,,,,,,,,0,24,24,24,,,,,,,,,,,,,,,,,,,,,,,,,,,,,,,,,,,,,,,,,,,,,,,,,,,,,,,,,,,,,,,272.9181481,None,272.9182734,273.919132,273.919132,None,273.9190174,None,272.9182734,273.919132,273.919132,274.9199642,274.9199642,None,j,0.278333283,274.9199642,None,272.9182734,None,272.9182734,None,272.9182734,None,,,,,,,,,,,,,,,,,,,,,1,1,2020_Jul_20_2230,sonority,2020.1.3,60.01110294
,,,pngimages/27_kiwi.png,,,,,,,trainingaudio/27_pakapa1.wav,trainingaudio/27_pakapa2.wav,1,,,,,,,,,,,,,,,,,,,,,,,,,0,25,25,25,,,,,,,,,,,,,,,,,,,,,,,,,,,,,,,,,,,,,,,,,,,,,,,,,,,,,,,,,,,,,,,275.2534059,None,275.2550739,276.2542123,276.2380228,None,276.2376366,None,275.2550739,276.2542123,276.2380228,277.2384698,277.2384698,None,f,1.43084344,277.2384698,None,275.2550739,None,275.2550739,None,275.2550739,None,,,,,,,,,,,,,,,,,,,,,1,1,2020_Jul_20_2230,sonority,2020.1.3,60.01110294
,,,pngimages/22_egg.png,,,,,,,trainingaudio/22_kakoki2.wav,trainingaudio/22_kakoki1.wav,2,,,,,,,,,,,,,,,,,,,,,,,,,0,26,26,26,,,,,,,,,,,,,,,,,,,,,,,,,,,,,,,,,,,,,,,,,,,,,,,,,,,,,,,,,,,,,,,278.7396054,None,278.7340684,279.7402648,279.7241369,None,279.7236469,None,278.7340684,279.7402648,279.7241369,280.7246689,280.7246689,None,j,0.099773452,280.7246689,None,278.7340684,None,278.7340684,None,278.7340684,None,,,,,,,,,,,,,,,,,,,,,1,1,2020_Jul_20_2230,sonority,2020.1.3,60.01110294
,,,pngimages/12_pie.png,,,,,,,trainingaudio/12_pokika3.wav,trainingaudio/12_pokika2.wav,1,,,,,,,,,,,,,,,,,,,,,,,,,0,27,27,27,,,,,,,,,,,,,,,,,,,,,,,,,,,,,,,,,,,,,,,,,,,,,,,,,,,,,,,,,,,,,,,280.8914065,None,280.8874488,281.8923257,281.8760863,None,281.8756413,None,280.8874488,281.8923257,281.8760863,282.8764427,282.8764427,None,f,0.175780837,282.8764427,None,280.8874488,None,280.8874488,None,280.8874488,None,,,,,,,,,,,,,,,,,,,,,1,1,2020_Jul_20_2230,sonority,2020.1.3,60.01110294
,,,pngimages/26_pineapple.png,,,,,,,trainingaudio/26_kapako1.wav,trainingaudio/26_kapako3.wav,1,,,,,,,,,,,,,,,,,,,,,,,,,0,28,28,28,,,,,,,,,,,,,,,,,,,,,,,,,,,,,,,,,,,,,,,,,,,,,,,,,,,,,,,,,,,,,,,283.1266778,None,283.1210943,284.127267,284.1110752,None,284.1107148,None,283.1210943,284.127267,284.1110752,285.1117477,285.1117477,None,j,0.444582094,285.1117477,None,283.1210943,None,283.1210943,None,283.1210943,None,,,,,,,,,,,,,,,,,,,,,1,1,2020_Jul_20_2230,sonority,2020.1.3,60.01110294
,,,pngimages/03_box.png,,,,,,,trainingaudio/03_kikita3.wav,trainingaudio/03_kikita2.wav,1,,,,,,,,,,,,,,,,,,,,,,,,,0,29,29,29,,,,,,,,,,,,,,,,,,,,,,,,,,,,,,,,,,,,,,,,,,,,,,,,,,,,,,,,,,,,,,,285.5951767,None,285.601294,286.6128181,286.5965946,None,286.5960914,None,285.601294,286.6128181,286.5965946,287.596934,287.596934,None,f,1.127241319,287.596934,None,285.601294,None,285.601294,None,285.601294,None,,,,,,,,,,,,,,,,,,,,,1,1,2020_Jul_20_2230,sonority,2020.1.3,60.01110294
,,,pngimages/25_apple.png,,,,,,,trainingaudio/25_tapapi3.wav,trainingaudio/25_tapapi1.wav,2,,,,,,,,,,,,,,,,,,,,,,,,,0,30,30,30,,,,,,,,,,,,,,,,,,,,,,,,,,,,,,,,,,,,,,,,,,,,,,,,,,,,,,,,,,,,,,,288.7980364,None,288.8019313,289.8153891,289.7991942,None,289.7988274,None,288.8019313,289.8153891,289.7991942,290.7996798,290.7996798,None,j,0.521475284,290.7996798,None,288.8019313,None,288.8019313,None,288.8019313,None,,,,,,,,,,,,,,,,,,,,,1,1,2020_Jul_20_2230,sonority,2020.1.3,60.01110294
,,,pngimages/16_icecream.png,,,,,,,trainingaudio/16_kokapi2.wav,trainingaudio/16_kokapi1.wav,1,,,,,,,,,,,,,,,,,,,,,,,,,0,31,31,31,,,,,,,,,,,,,,,,,,,,,,,,,,,,,,,,,,,,,,,,,,,,,,,,,,,,,,,,,,,,,,,291.3835036,None,291.3781464,292.3841182,292.3679978,None,292.3676098,None,291.3781464,292.3841182,292.3679978,293.3684958,293.3684958,None,f,0.412613463,293.3684958,None,291.3781464,None,291.3781464,None,291.3781464,None,,,,,,,,,,,,,,,,,,,,,1,1,2020_Jul_20_2230,sonority,2020.1.3,60.01110294
,,,pngimages/11_compass.png,,,,,,,trainingaudio/11_tokiko2.wav,trainingaudio/11_tokiko1.wav,2,,,,,,,,,,,,,,,,,,,,,,,,,0,32,32,32,,,,,,,,,,,,,,,,,,,,,,,,,,,,,,,,,,,,,,,,,,,,,,,,,,,,,,,,,,,,,,,293.8186354,None,293.825745,294.8363746,294.8202712,None,294.8196698,None,293.825745,294.8363746,294.8202712,295.8205585,295.8205585,None,j,1.007729456,295.8205585,None,293.825745,None,293.825745,None,293.825745,None,,,,,,,,,,,,,,,,,,,,,1,1,2020_Jul_20_2230,sonority,2020.1.3,60.01110294
,,,pngimages/19_burger.png,,,,,,,trainingaudio/19_papipi2.wav,trainingaudio/19_papipi1.wav,2,,,,,,,,,,,,,,,,,,,,,,,,,0,33,33,33,,,,,,,,,,,,,,,,,,,,,,,,,,,,,,,,,,,,,,,,,,,,,,,,,,,,,,,,,,,,,,,296.9047479,None,296.8972391,297.9055293,297.8892669,None,297.8889884,None,296.8972391,297.9055293,297.8892669,298.8897993,298.8897993,None,f,1.270483001,298.8897993,None,296.8972391,None,296.8972391,None,296.8972391,None,,,,,,,,,,,,,,,,,,,,,1,1,2020_Jul_20_2230,sonority,2020.1.3,60.01110294
,,,pngimages/20_pizza.png,,,,,,,trainingaudio/20_tatito3.wav,trainingaudio/20_tatito1.wav,2,,,,,,,,,,,,,,,,,,,,,,,,,0,34,34,34,,,,,,,,,,,,,,,,,,,,,,,,,,,,,,,,,,,,,,,,,,,,,,,,,,,,,,,,,,,,,,,300.2241456,None,300.231039,301.2416936,301.225427,None,301.2249046,None,300.231039,301.2416936,301.225427,302.2259923,302.2259923,None,j,0.488135657,302.2259923,None,300.231039,None,300.231039,None,300.231039,None,,,,,,,,,,,,,,,,,,,,,1,1,2020_Jul_20_2230,sonority,2020.1.3,60.01110294
,,,pngimages/04_ladder.png,,,,,,,trainingaudio/04_kitoti2.wav,trainingaudio/04_kitoti3.wav,1,,,,,,,,,,,,,,,,,,,,,,,,,0,35,35,35,,,,,,,,,,,,,,,,,,,,,,,,,,,,,,,,,,,,,,,,,,,,,,,,,,,,,,,,,,,,,,,302.7763224,None,302.7805663,303.7937971,303.7774407,None,303.7771048,None,302.7805663,303.7937971,303.7774407,304.7779912,304.7779912,None,j,1.954098262,304.7779912,None,302.7805663,None,302.7805663,None,302.7805663,None,,,,,,,,,,,,,,,,,,,,,1,1,2020_Jul_20_2230,sonority,2020.1.3,60.01110294
,,,pngimages/13_toast.png,,,,,,,trainingaudio/13_kopopi2.wav,trainingaudio/13_kopopi1.wav,2,,,,,,,,,,,,,,,,,,,,,,,,,0,36,36,36,,,,,,,,,,,,,,,,,,,,,,,,,,,,,,,,,,,,,,,,,,,,,,,,,,,,,,,,,,,,,,,306.7963338,None,306.7897744,307.7969729,307.7807944,None,307.7803992,None,306.7897744,307.7969729,307.7807944,308.781323,308.781323,None,f,0.510894715,308.781323,None,306.7897744,None,306.7897744,None,306.7897744,None,,,,,,,,,,,,,,,,,,,,,1,1,2020_Jul_20_2230,sonority,2020.1.3,60.01110294
,,,pngimages/07_suitcase.png,,,,,,,trainingaudio/07_pitapi1.wav,trainingaudio/07_pitapi2.wav,2,,,,,,,,,,,,,,,,,,,,,,,,,0,37,37,37,,,,,,,,,,,,,,,,,,,,,,,,,,,,,,,,,,,,,,,,,,,,,,,,,,,,,,,,,,,,,,,309.3484067,None,309.3444926,310.3491924,310.3329413,None,310.3325544,None,309.3444926,310.3491924,310.3329413,311.3336908,311.3336908,None,j,1.801028152,311.3336908,None,309.3444926,None,309.3444926,None,309.3444926,None,,,,,,,,,,,,,,,,,,,,,1,1,2020_Jul_20_2230,sonority,2020.1.3,60.01110294
,,,pngimages/10_backpack.png,,,,,,,trainingaudio/10_tokiti1.wav,trainingaudio/10_tokiti2.wav,1,,,,,,,,,,,,,,,,,,,,,,,,,0,38,38,38,,,,,,,,,,,,,,,,,,,,,,,,,,,,,,,,,,,,,,,,,,,,,,,,,,,,,,,,,,,,,,,313.184935,None,313.1879325,314.2024346,314.1862425,None,314.1858446,None,313.1879325,314.2024346,314.1862425,315.1867099,315.1867099,None,j,0.011650632,315.1867099,None,313.1879325,None,313.1879325,None,313.1879325,None,,,,,,,,,,,,,,,,,,,,,1,1,2020_Jul_20_2230,sonority,2020.1.3,60.01110294
,,,pngimages/08_bell.png,,,,,,,trainingaudio/08_tipako1.wav,trainingaudio/08_tipako2.wav,2,,,,,,,,,,,,,,,,,,,,,,,,,0,39,39,39,,,,,,,,,,,,,,,,,,,,,,,,,,,,,,,,,,,,,,,,,,,,,,,,,,,,,,,,,,,,,,,315.2365973,None,315.241677,316.2541866,316.2379136,None,316.2374913,None,315.241677,316.2541866,316.2379136,317.2383328,317.2383328,None,f,0.337012732,317.2383328,None,315.241677,None,315.241677,None,315.241677,None,,,,,,,,,,,,,,,,,,,,,1,1,2020_Jul_20_2230,sonority,2020.1.3,60.01110294
,,,pngimages/14_coffee.png,,,,,,,trainingaudio/14_pokoto1.wav,trainingaudio/14_pokoto2.wav,1,,,,,,,,,,,,,,,,,,,,,,,,,0,40,40,40,,,,,,,,,,,,,,,,,,,,,,,,,,,,,,,,,,,,,,,,,,,,,,,,,,,,,,,,,,,,,,,317.6219755,None,317.6274603,318.639399,318.6231948,None,318.6227955,None,317.6274603,318.639399,318.6231948,319.6234783,319.6234783,None,j,1.351446512,319.6234783,None,317.6274603,None,317.6274603,None,317.6274603,None,,,,,,,,,,,,,,,,,,,,,1,1,2020_Jul_20_2230,sonority,2020.1.3,60.01110294
,,,pngimages/02_pallet.png,,,,,,,trainingaudio/02_pitito3.wav,trainingaudio/02_pitito1.wav,1,,,,,,,,,,,,,,,,,,,,,,,,,0,41,41,41,,,,,,,,,,,,,,,,,,,,,,,,,,,,,,,,,,,,,,,,,,,,,,,,,,,,,,,,,,,,,,,321.0246248,None,321.0194669,322.0254482,322.0092492,None,322.0088676,None,321.0194669,322.0254482,322.0092492,323.0098126,323.0098126,None,f,0.031514779,323.0098126,None,321.0194669,None,321.0194669,None,321.0194669,None,,,,,,,,,,,,,,,,,,,,,1,1,2020_Jul_20_2230,sonority,2020.1.3,60.01110294
,,,pngimages/09_plane.png,,,,,,,trainingaudio/09_tipata2.wav,trainingaudio/09_tipata3.wav,1,,,,,,,,,,,,,,,,,,,,,,,,,0,42,42,42,,,,,,,,,,,,,,,,,,,,,,,,,,,,,,,,,,,,,,,,,,,,,,,,,,,,,,,,,,,,,,,323.1099038,None,323.1048742,324.1104522,324.0942219,None,324.0938528,None,323.1048742,324.1104522,324.0942219,325.0948207,325.0948207,None,f,0.398664119,325.0948207,None,323.1048742,None,323.1048742,None,323.1048742,None,,,,,,,,,,,,,,,,,,,,,1,1,2020_Jul_20_2230,sonority,2020.1.3,60.01110294
,,,pngimages/05_megaphone.png,,,,,,,trainingaudio/05_titopo2.wav,trainingaudio/05_titopo3.wav,1,,,,,,,,,,,,,,,,,,,,,,,,,0,43,43,43,,,,,,,,,,,,,,,,,,,,,,,,,,,,,,,,,,,,,,,,,,,,,,,,,,,,,,,,,,,,,,,325.5451784,None,325.5436332,326.5460467,326.5296537,None,326.529308,None,325.5436332,326.5460467,326.5296537,327.5303043,327.5303043,None,j,0.352977979,327.5303043,None,325.5436332,None,325.5436332,None,325.5436332,None,,,,,,,,,,,,,,,,,,,,,1,1,2020_Jul_20_2230,sonority,2020.1.3,60.01110294
,,,pngimages/27_kiwi.png,,,,,,,trainingaudio/27_pakapa2.wav,trainingaudio/27_pakapa1.wav,2,,,,,,,,,,,,,,,,,,,,,,,,,0,44,44,44,,,,,,,,,,,,,,,,,,,,,,,,,,,,,,,,,,,,,,,,,,,,,,,,,,,,,,,,,,,,,,,327.9471852,None,327.9435872,328.9479818,328.9317345,None,328.9312404,None,327.9435872,328.9479818,328.9317345,329.9322794,329.9322794,None,j,0.027744257,329.9322794,None,327.9435872,None,327.9435872,None,327.9435872,None,,,,,,,,,,,,,,,,,,,,,1,1,2020_Jul_20_2230,sonority,2020.1.3,60.01110294
,,,pngimages/17_cracker.png,,,,,,,trainingaudio/17_kotako1.wav,trainingaudio/17_kotako2.wav,2,,,,,,,,,,,,,,,,,,,,,,,,,0,45,45,45,,,,,,,,,,,,,,,,,,,,,,,,,,,,,,,,,,,,,,,,,,,,,,,,,,,,,,,,,,,,,,,330.015627,None,330.0072046,331.0163557,330.9834,None,330.98304,None,330.0072046,331.0163557,330.9834,331.9839385,331.9839385,None,f,0.285207896,331.9839385,None,330.0072046,None,330.0072046,None,330.0072046,None,,,,,,,,,,,,,,,,,,,,,1,1,2020_Jul_20_2230,sonority,2020.1.3,60.01110294
,,,pngimages/22_egg.png,,,,,,,trainingaudio/22_kakoki1.wav,trainingaudio/22_kakoki2.wav,1,,,,,,,,,,,,,,,,,,,,,,,,,0,46,46,46,,,,,,,,,,,,,,,,,,,,,,,,,,,,,,,,,,,,,,,,,,,,,,,,,,,,,,,,,,,,,,,332.3509147,None,332.3468162,333.3516663,333.3353963,None,333.3349615,None,332.3468162,333.3516663,333.3353963,334.3358566,334.3358566,None,j,0.046351437,334.3358566,None,332.3468162,None,332.3468162,None,332.3468162,None,,,,,,,,,,,,,,,,,,,,,1,1,2020_Jul_20_2230,sonority,2020.1.3,60.01110294
,,,pngimages/24_banana.png,,,,,,,trainingaudio/24_takopa3.wav,trainingaudio/24_takopa1.wav,2,,,,,,,,,,,,,,,,,,,,,,,,,0,47,47,47,,,,,,,,,,,,,,,,,,,,,,,,,,,,,,,,,,,,,,,,,,,,,,,,,,,,,,,,,,,,,,,334.452615,None,334.451775,335.4533397,335.4370818,None,335.4367248,None,334.451775,335.4533397,335.4370818,336.437615,336.437615,None,f,0.392662095,336.437615,None,334.451775,None,334.451775,None,334.451775,None,,,,,,,,,,,,,,,,,,,,,1,1,2020_Jul_20_2230,sonority,2020.1.3,60.01110294
,,,pngimages/23_lemon.png,,,,,,,trainingaudio/23_patoko2.wav,trainingaudio/23_patoko1.wav,2,,,,,,,,,,,,,,,,,,,,,,,,,0,48,48,48,,,,,,,,,,,,,,,,,,,,,,,,,,,,,,,,,,,,,,,,,,,,,,,,,,,,,,,,,,,,,,,336.8711361,None,336.8784851,337.8886295,337.8724476,None,337.8720225,None,336.8784851,337.8886295,337.8724476,338.8729346,338.8729346,None,f,0.077167314,338.8729346,None,336.8784851,None,336.8784851,None,336.8784851,None,,,,,,,,,,,,,,,,,,,,,1,1,2020_Jul_20_2230,sonority,2020.1.3,60.01110294
,,,pngimages/15_barrel.png,,,,,,,trainingaudio/15_kopota3.wav,trainingaudio/15_kopota2.wav,1,,,,,,,,,,,,,,,,,,,,,,,,,0,49,49,49,,,,,,,,,,,,,,,,,,,,,,,,,,,,,,,,,,,,,,,,,,,,,,,,,,,,,,,,,,,,,,,339.039734,None,339.0349644,340.040568,340.0243842,None,340.0238576,None,339.0349644,340.040568,340.0243842,341.0248773,341.0248773,None,j,0.284273384,341.0248773,None,339.0349644,None,339.0349644,None,339.0349644,None,,,,,,,,,,,,,,,,,,,,,1,1,2020_Jul_20_2230,sonority,2020.1.3,60.01110294
,,,pngimages/06_tent.png,,,,,,,trainingaudio/06_titoka2.wav,trainingaudio/06_titoka3.wav,2,,,,,,,,,,,,,,,,,,,,,,,,,0,50,50,50,,,,,,,,,,,,,,,,,,,,,,,,,,,,,,,,,,,,,,,,,,,,,,,,,,,,,,,,,,,,,,,341.3583911,None,341.355171,342.3590608,342.3428513,None,342.3423995,None,341.355171,342.3590608,342.3428513,343.3431311,343.3431311,None,j,2.232090967,343.3431311,None,341.355171,None,341.355171,None,341.355171,None,,,,,,,,,,,,,,,,,,,,,1,1,2020_Jul_20_2230,sonority,2020.1.3,60.01110294
,,,pngimages/18_donut.png,,,,,,,trainingaudio/18_popata2.wav,trainingaudio/18_popata3.wav,1,,,,,,,,,,,,,,,,,,,,,,,,,0,51,51,51,,,,,,,,,,,,,,,,,,,,,,,,,,,,,,,,,,,,,,,,,,,,,,,,,,,,,,,,,,,,,,,345.6283832,None,345.6313075,346.6460139,346.6298142,None,346.6293839,None,345.6313075,346.6460139,346.6298142,347.6302212,347.6302212,None,j,0.05206952,347.6302212,None,345.6313075,None,345.6313075,None,345.6313075,None,,,,,,,,,,,,,,,,,,,,,1,1,2020_Jul_20_2230,sonority,2020.1.3,60.01110294
,,,pngimages/21_cheese.png,,,,,,,trainingaudio/21_papika1.wav,trainingaudio/21_papika2.wav,1,,,,,,,,,,,,,,,,,,,,,,,,,0,52,52,52,,,,,,,,,,,,,,,,,,,,,,,,,,,,,,,,,,,,,,,,,,,,,,,,,,,,,,,,,,,,,,,347.7637121,None,347.7654755,348.781138,348.7651221,None,348.7644241,None,347.7654755,348.781138,348.7651221,349.7653437,349.7653437,None,f,0.359961713,349.7653437,None,347.7654755,None,347.7654755,None,347.7654755,None,,,,,,,,,,,,,,,,,,,,,1,1,2020_Jul_20_2230,sonority,2020.1.3,60.01110294
,,,pngimages/01_gift.png,,,,,,,trainingaudio/01_kitipi1.wav,trainingaudio/01_kitipi2.wav,1,,,,,,,,,,,,,,,,,,,,,,,,,0,53,53,53,,,,,,,,,,,,,,,,,,,,,,,,,,,,,,,,,,,,,,,,,,,,,,,,,,,,,,,,,,,,,,,350.1822764,None,350.1802571,351.1831422,351.1669224,None,351.1663974,None,350.1802571,351.1831422,351.1669224,352.1673464,352.1673464,None,j,0.27276963,352.1673464,None,350.1802571,None,350.1802571,None,350.1802571,None,,,,,,,,,,,,,,,,,,,,,1,1,2020_Jul_20_2230,sonority,2020.1.3,60.01110294
,,,,,,,,,,,,,,,,,,,,,,,,,,,,,,,,,,,,,,,,,,,,,,,,,,,,,,,,,,,,,,,,,,,,,,,,,,,,,,,,,,,,,,,,,,,,,,,,,,,,,,,,,,,,,,,,,,,,,,,,,,,,,,,352.4674163,None,escape,3.257885774,352.4674163,None,,,,,,,,,,,,,,,1,1,2020_Jul_20_2230,sonority,2020.1.3,60.01110294
,,,,,,,,,,,,,,,,,,,,,,,,,,,,,,,,,,,,,,,,,,,,,,,,,,,,,,,,,,,,,,,,,,,,,,,,,,,,,,,,,,,,,,,,,,,,,,,,,,,,,,,,,,,,,,,,,,,,,,,,,,,,,,,,,,,,,355.7762143,None,escape,1.02586617,355.7762143,None,,,,,,,,,1,1,2020_Jul_20_2230,sonority,2020.1.3,60.01110294
,,,,,,,,,,,,,,,,,,,,,,,,,,,,,,,,,,,,,,,,,,,,,,,,,,,,,,,,,,,,,,,,,,,,,,,,,,,,,,,,,,,,,,,,,,,,,,,,,,,,,,,,,,,,,,,,,,,,,,,,,,,,,,,,,,,,,,,,,,,356.843731,None,357.8764038,None,escape,2.992715334,357.8764038,None,1,1,2020_Jul_20_2230,sonority,2020.1.3,60.01110294
