condFiles,testFiles,audio,imageLoc,audioTrue,imageTrue,audioFalse,imageFalse,truePos,falsePos,train1blocks.thisRepN,train1blocks.thisTrialN,train1blocks.thisN,train1blocks.thisIndex,blockwords1.thisRepN,blockwords1.thisTrialN,blockwords1.thisN,blockwords1.thisIndex,blocktest1.thisRepN,blocktest1.thisTrialN,blocktest1.thisN,blocktest1.thisIndex,train2blocks.thisRepN,train2blocks.thisTrialN,train2blocks.thisN,train2blocks.thisIndex,blockloop2.thisRepN,blockloop2.thisTrialN,blockloop2.thisN,blockloop2.thisIndex,blocktest2.thisRepN,blocktest2.thisTrialN,blocktest2.thisN,blocktest2.thisIndex,instructions.started,instructions.stopped,stimulitrain1.started,stimulitrain1.stopped,imagetrain1.started,imagetrain1.stopped,stimulitest1.started,stimulitest1.stopped,correct.started,correct.stopped,incorrect.started,incorrect.stopped,train1TestAnswer.keys,train1TestAnswer.started,train1TestAnswer.stopped,train1TestAnswer.rt,notice.started,notice.stopped,stimulitrain2.started,stimulitrain2.stopped,imagetrain2.started,imagetrain2.stopped,stimulitest2.started,stimulitest2.stopped,key_resp.keys,key_resp.rt,key_resp.started,key_resp.stopped,correct2.started,correct2.stopped,incorrect2.started,incorrect2.stopped,participant,session,date,expName,psychopyVersion,frameRate,
autoConditions/train1Block1.xlsx,autoConditions/train1Block1Test.xlsx,trainaudio/18_popata.wav,pngimages/18_donut.png,,,,,,,0,0,0,0,0,0,0,0,,,,,,,,,,,,,,,,,10.856614513977547,None,14.098834937234642,None,14.117178747794242,None,,,,,,,,,,,,,,,,,,,,,,,,,,,1,001,2020_Jul_06_2051,sonority,2020.1.3,60.02649519618351,
autoConditions/train1Block1.xlsx,autoConditions/train1Block1Test.xlsx,trainaudio/27_pakapa.wav,pngimages/27_kiwi.png,,,,,,,0,0,0,0,0,1,1,1,,,,,,,,,,,,,,,,,,,15.549635011694045,None,15.550006211196887,None,,,,,,,,,,,,,,,,,,,,,,,,,,,1,001,2020_Jul_06_2051,sonority,2020.1.3,60.02649519618351,
autoConditions/train1Block1.xlsx,autoConditions/train1Block1Test.xlsx,trainaudio/10_tokiti.wav,pngimages/100_bicycle.png,,,,,,,0,0,0,0,0,2,2,2,,,,,,,,,,,,,,,,,,,17.06994178839086,None,17.063023869515746,None,,,,,,,,,,,,,,,,,,,,,,,,,,,1,001,2020_Jul_06_2051,sonority,2020.1.3,60.02649519618351,
autoConditions/train1Block1.xlsx,autoConditions/train1Block1Test.xlsx,trainaudio/22_kakoki.wav,pngimages/22_egg.png,,,,,,,0,0,0,0,0,3,3,3,,,,,,,,,,,,,,,,,,,18.56963085074967,None,18.57379530070466,None,,,,,,,,,,,,,,,,,,,,,,,,,,,1,001,2020_Jul_06_2051,sonority,2020.1.3,60.02649519618351,
autoConditions/train1Block1.xlsx,autoConditions/train1Block1Test.xlsx,trainaudio/01_kitipi.wav,pngimages/01_gift.png,,,,,,,0,0,0,0,0,4,4,4,,,,,,,,,,,,,,,,,,,20.0546392387012,None,20.05444825842278,None,,,,,,,,,,,,,,,,,,,,,,,,,,,1,001,2020_Jul_06_2051,sonority,2020.1.3,60.02649519618351,
autoConditions/train1Block1.xlsx,autoConditions/train1Block1Test.xlsx,trainaudio/24_takopa.wav,pngimages/24_banana.png,,,,,,,0,0,0,0,0,5,5,5,,,,,,,,,,,,,,,,,,,21.59029391253134,None,21.583317128825,None,,,,,,,,,,,,,,,,,,,,,,,,,,,1,001,2020_Jul_06_2051,sonority,2020.1.3,60.02649519618351,
autoConditions/train1Block1.xlsx,autoConditions/train1Block1Test.xlsx,,,trainaudio/18_popata.wav,pngimages/18_donut.png,trainaudio/22_kakoki.wav,pngimages/22_egg.png,0.5,-0.5,0,0,0,0,,,,,0,0,0,0,,,,,,,,,,,,,,,,,,,23.091556353343183,None,23.086893006111495,None,23.086893006111495,None,None,25.074822131209658,None,,,,,,,,,,,,,,,,,,1,001,2020_Jul_06_2051,sonority,2020.1.3,60.02649519618351,
autoConditions/train1Block1.xlsx,autoConditions/train1Block1Test.xlsx,,,trainaudio/10_tokiti.wav,pngimages/100_bicycle.png,trainaudio/24_takopa.wav,pngimages/24_banana.png,-0.5,0.5,0,0,0,0,,,,,0,1,1,1,,,,,,,,,,,,,,,,,,,30.095906459691466,None,30.08708292916708,None,30.08708292916708,None,j,32.06411847574054,None,0.25073316718044225,,,,,,,,,,,,,,,,,1,001,2020_Jul_06_2051,sonority,2020.1.3,60.02649519618351,
autoConditions/train1Block1.xlsx,autoConditions/train1Block1Test.xlsx,,,trainaudio/01_kitipi.wav,pngimages/01_gift.png,trainaudio/27_pakapa.wav,pngimages/27_kiwi.png,-0.5,0.5,0,0,0,0,,,,,0,2,2,2,,,,,,,,,,,,,,,,,,,32.364563416736196,None,32.36302149076073,None,32.36302149076073,None,j,34.349513166424,None,-0.2516461571212858,,,,,,,,,,,,,,,,,1,001,2020_Jul_06_2051,sonority,2020.1.3,60.02649519618351,
autoConditions/train1Block1.xlsx,autoConditions/train1Block1Test.xlsx,,,,,,,,,0,0,0,0,,,,,,,,,,,,,,,,,,,,,,,,,,,,,,,,,,,,,,,,,,,,,,,,,,,,,1,001,2020_Jul_06_2051,sonority,2020.1.3,60.02649519618351,
autoConditions/train1Block2.xlsx,autoConditions/train1Block2Test.xlsx,trainaudio/15_kopota.wav,pngimages/15_barrel.png,,,,,,,0,1,1,1,0,0,0,0,,,,,,,,,,,,,,,,,,,34.39964254442311,None,34.400070834119106,None,,,,,,,,,,,,,,,,,,,,,,,,,,,1,001,2020_Jul_06_2051,sonority,2020.1.3,60.02649519618351,
autoConditions/train1Block2.xlsx,autoConditions/train1Block2Test.xlsx,trainaudio/16_kotapi.wav,pngimages/16_icecream.png,,,,,,,0,1,1,1,0,1,1,1,,,,,,,,,,,,,,,,,,,35.899966772898914,None,35.90083675640926,35.90083675640926,,,,,,,,,,,,,,,,,,,,,,,,,,,1,001,2020_Jul_06_2051,sonority,2020.1.3,60.02649519618351,
autoConditions/train1Block2.xlsx,autoConditions/train1Block2Test.xlsx,trainaudio/06_titoka.wav,pngimages/06_tent.png,,,,,,,0,1,1,1,0,2,2,2,,,,,,,,,,,,,,,,,,,37.40124318420421,None,37.40664375759661,37.40664375759661,,,,,,,,,,,,,,,,,,,,,,,,,,,1,001,2020_Jul_06_2051,sonority,2020.1.3,60.02649519618351,
autoConditions/train1Block2.xlsx,autoConditions/train1Block2Test.xlsx,trainaudio/04_kitoti.wav,pngimages/04_ladder.png,,,,,,,0,1,1,1,0,3,3,3,,,,,,,,,,,,,,,,,,,38.91898815190361,None,38.92273265669064,38.92273265669064,,,,,,,,,,,,,,,,,,,,,,,,,,,1,001,2020_Jul_06_2051,sonority,2020.1.3,60.02649519618351,
autoConditions/train1Block2.xlsx,autoConditions/train1Block2Test.xlsx,trainaudio/23_patoko.wav,pngimages/23_lemon.png,,,,,,,0,1,1,1,0,4,4,4,,,,,,,,,,,,,,,,,,,40.43699780361785,None,40.44157789432211,40.44157789432211,,,,,,,,,,,,,,,,,,,,,,,,,,,1,001,2020_Jul_06_2051,sonority,2020.1.3,60.02649519618351,
autoConditions/train1Block2.xlsx,autoConditions/train1Block2Test.xlsx,trainaudio/02_pitito.wav,pngimages/02_pallet.png,,,,,,,0,1,1,1,0,5,5,5,,,,,,,,,,,,,,,,,,,41.95509052306297,None,41.95507205936883,41.95507205936883,,,,,,,,,,,,,,,,,,,,,,,,,,,1,001,2020_Jul_06_2051,sonority,2020.1.3,60.02649519618351,
autoConditions/train1Block2.xlsx,autoConditions/train1Block2Test.xlsx,,,trainaudio/15_kopota.wav,pngimages/15_barrel.png,trainaudio/04_kitoti.wav,pngimages/04_ladder.png,0.5,-0.5,0,1,1,1,,,,,0,0,0,0,,,,,,,,,,,,,,,,,,,43.50617989980092,None,43.50316960053169,None,43.50316960053169,None,j,45.492046075407416,None,-10.938145120089757,,,,,,,,,,,,,,,,,1,001,2020_Jul_06_2051,sonority,2020.1.3,60.02649519618351,
autoConditions/train1Block2.xlsx,autoConditions/train1Block2Test.xlsx,,,trainaudio/06_titoka.wav,pngimages/06_tent.png,trainaudio/02_pitito.wav,pngimages/02_pallet.png,0.5,-0.5,0,1,1,1,,,,,0,1,1,1,,,,,,,,,,,,,,,,,,,45.52546566074015,None,45.52148867957294,None,45.52148867957294,None,j,47.51019562075089,None,2.368884185067145,,,,,,,,,,,,,,,,,1,001,2020_Jul_06_2051,sonority,2020.1.3,60.02649519618351,
autoConditions/train1Block2.xlsx,autoConditions/train1Block2Test.xlsx,,,trainaudio/23_patoko.wav,pngimages/23_lemon.png,trainaudio/16_kotapi.wav,pngimages/16_icecream.png,-0.5,0.5,0,1,1,1,,,,,0,2,2,2,,,,,,,,,,,,,,,,,,,49.912554895502396,None,49.91441984170524,None,49.91441984170524,None,j,51.91392558866937,None,0.44993903960858006,,,,,,,,,,,,,,,,,1,001,2020_Jul_06_2051,sonority,2020.1.3,60.02649519618351,
autoConditions/train1Block2.xlsx,autoConditions/train1Block2Test.xlsx,,,,,,,,,0,1,1,1,,,,,,,,,,,,,,,,,,,,,,,,,,,,,,,,,,,,,,,,,,,,,,,,,,,,,1,001,2020_Jul_06_2051,sonority,2020.1.3,60.02649519618351,
autoConditions/train1Block3.xlsx,autoConditions/train1Block3Test.xlsx,trainaudio/05_titopo.wav,pngimages/05_megaphone.png,,,,,,,0,2,2,2,0,0,0,0,,,,,,,,,,,,,,,,,,,52.41443162222567,None,52.40840215055505,None,,,,,,,,,,,,,,,,,,,,,,,,,,,1,001,2020_Jul_06_2051,sonority,2020.1.3,60.02649519618351,
autoConditions/train1Block3.xlsx,autoConditions/train1Block3Test.xlsx,trainaudio/08_tipako.wav,pngimages/08_bell.png,,,,,,,0,2,2,2,0,1,1,1,,,,,,,,,,,,,,,,,,,53.91482268248219,None,53.91492731006292,53.91492731006292,,,,,,,,,,,,,,,,,,,,,,,,,,,1,001,2020_Jul_06_2051,sonority,2020.1.3,60.02649519618351,
autoConditions/train1Block3.xlsx,autoConditions/train1Block3Test.xlsx,trainaudio/20_tatito.wav,pngimages/20_pizza.png,,,,,,,0,2,2,2,0,2,2,2,,,,,,,,,,,,,,,,,,,55.43283003095421,None,55.43136698156013,55.43136698156013,,,,,,,,,,,,,,,,,,,,,,,,,,,1,001,2020_Jul_06_2051,sonority,2020.1.3,60.02649519618351,
autoConditions/train1Block3.xlsx,autoConditions/train1Block3Test.xlsx,trainaudio/19_papipi.wav,pngimages/19_burger.png,,,,,,,0,2,2,2,0,3,3,3,,,,,,,,,,,,,,,,,,,56.934074385650455,None,56.93844793975586,56.93844793975586,,,,,,,,,,,,,,,,,,,,,,,,,,,1,001,2020_Jul_06_2051,sonority,2020.1.3,60.02649519618351,
autoConditions/train1Block3.xlsx,autoConditions/train1Block3Test.xlsx,trainaudio/14_pokoto.wav,pngimages/14_coffee.png,,,,,,,0,2,2,2,0,4,4,4,,,,,,,,,,,,,,,,,,,58.45198209059017,None,58.45203234658402,58.45203234658402,,,,,,,,,,,,,,,,,,,,,,,,,,,1,001,2020_Jul_06_2051,sonority,2020.1.3,60.02649519618351,
autoConditions/train1Block3.xlsx,autoConditions/train1Block3Test.xlsx,trainaudio/13_kopopi.wav,pngimages/13_toast.png,,,,,,,0,2,2,2,0,5,5,5,,,,,,,,,,,,,,,,,,,59.953114643669686,None,59.953386539476924,59.953386539476924,,,,,,,,,,,,,,,,,,,,,,,,,,,1,001,2020_Jul_06_2051,sonority,2020.1.3,60.02649519618351,
autoConditions/train1Block3.xlsx,autoConditions/train1Block3Test.xlsx,,,trainaudio/05_titopo.wav,pngimages/05_megaphone.png,trainaudio/19_papipi.wav,pngimages/19_burger.png,0.5,-0.5,0,2,2,2,,,,,0,0,0,0,,,,,,,,,,,,,,,,,,,61.48770718320447,None,61.47852831156342,None,61.47852831156342,None,None,63.45668074161222,68.46092701329326,,,,,,,,,,,,,,,,,,1,001,2020_Jul_06_2051,sonority,2020.1.3,60.02649519618351,
autoConditions/train1Block3.xlsx,autoConditions/train1Block3Test.xlsx,,,trainaudio/20_tatito.wav,pngimages/20_pizza.png,trainaudio/13_kopopi.wav,pngimages/13_toast.png,-0.5,0.5,0,2,2,2,,,,,0,1,1,1,,,,,,,,,,,,,,,,,,,68.51105639129237,None,68.5012258154893,68.5012258154893,68.5012258154893,68.5012258154893,j,70.48154744620842,None,-0.8989160037890542,,,,,,,,,,,,,,,,,1,001,2020_Jul_06_2051,sonority,2020.1.3,60.02649519618351,
autoConditions/train1Block3.xlsx,autoConditions/train1Block3Test.xlsx,,,trainaudio/14_pokoto.wav,pngimages/14_coffee.png,trainaudio/08_tipako.wav,pngimages/08_bell.png,-0.5,0.5,0,2,2,2,,,,,0,2,2,2,,,,,,,,,,,,,,,,,,,70.53167682420754,None,70.52942542424717,None,70.52942542424717,None,j,72.51433654742141,None,-0.6998653170012403,,,,,,,,,,,,,,,,,1,001,2020_Jul_06_2051,sonority,2020.1.3,60.02649519618351,
autoConditions/train1Block3.xlsx,autoConditions/train1Block3Test.xlsx,,,,,,,,,0,2,2,2,,,,,,,,,,,,,,,,,,,,,,,,,,,,,,,,,,,,,,,,,,,,,,,,,,,,,1,001,2020_Jul_06_2051,sonority,2020.1.3,60.02649519618351,
autoConditions/train1Block4.xlsx,autoConditions/train1Block4Test.xlsx,trainaudio/12_pokika.wav,pngimages/12_pie.png,,,,,,,0,3,3,3,0,0,0,0,,,,,,,,,,,,,,,,,,,72.59788551075326,None,72.59804201792576,None,,,,,,,,,,,,,,,,,,,,,,,,,,,1,001,2020_Jul_06_2051,sonority,2020.1.3,60.02649519618351,
autoConditions/train1Block4.xlsx,autoConditions/train1Block4Test.xlsx,trainaudio/25_tapapi.wav,pngimages/25_apple.png,,,,,,,0,3,3,3,0,1,1,1,,,,,,,,,,,,,,,,,,,74.09823171442841,None,74.1009797839506,74.1009797839506,,,,,,,,,,,,,,,,,,,,,,,,,,,1,001,2020_Jul_06_2051,sonority,2020.1.3,60.02649519618351,
autoConditions/train1Block4.xlsx,autoConditions/train1Block4Test.xlsx,trainaudio/17_kotako.wav,pngimages/17_cracker.png,,,,,,,0,3,3,3,0,2,2,2,,,,,,,,,,,,,,,,,,,75.61606088260888,None,75.6166612735542,75.6166612735542,,,,,,,,,,,,,,,,,,,,,,,,,,,1,001,2020_Jul_06_2051,sonority,2020.1.3,60.02649519618351,
autoConditions/train1Block4.xlsx,autoConditions/train1Block4Test.xlsx,trainaudio/03_kikita.wav,pngimages/03_box.png,,,,,,,0,3,3,3,0,3,3,3,,,,,,,,,,,,,,,,,,,77.13420680317796,None,77.1256407071196,77.1256407071196,,,,,,,,,,,,,,,,,,,,,,,,,,,1,001,2020_Jul_06_2051,sonority,2020.1.3,60.02649519618351,
autoConditions/train1Block4.xlsx,autoConditions/train1Block4Test.xlsx,trainaudio/11_tokiko.wav,pngimages/11_compass.png,,,,,,,0,3,3,3,0,4,4,4,,,,,,,,,,,,,,,,,,,78.6521129978035,None,78.6423764018109,78.6423764018109,,,,,,,,,,,,,,,,,,,,,,,,,,,1,001,2020_Jul_06_2051,sonority,2020.1.3,60.02649519618351,
autoConditions/train1Block4.xlsx,autoConditions/train1Block4Test.xlsx,trainaudio/07_pitapi.wav,pngimages/07_suitcase.png,,,,,,,0,3,3,3,0,5,5,5,,,,,,,,,,,,,,,,,,,80.15337245571428,None,80.1568677572941,80.1568677572941,,,,,,,,,,,,,,,,,,,,,,,,,,,1,001,2020_Jul_06_2051,sonority,2020.1.3,60.02649519618351,
autoConditions/train1Block4.xlsx,autoConditions/train1Block4Test.xlsx,,,trainaudio/12_pokika.wav,pngimages/12_pie.png,trainaudio/03_kikita.wav,pngimages/03_box.png,0.5,-0.5,0,3,3,3,,,,,0,0,0,0,,,,,,,,,,,,,,,,,,,81.70471182858746,None,81.7072292718658,None,81.7072292718658,None,f,83.70698271172296,None,0.3579924944497179,,,,,,,,,,,,,,,,,1,001,2020_Jul_06_2051,sonority,2020.1.3,60.02649519618351,
autoConditions/train1Block4.xlsx,autoConditions/train1Block4Test.xlsx,,,trainaudio/17_kotako.wav,pngimages/17_cracker.png,trainaudio/07_pitapi.wav,pngimages/07_suitcase.png,0.5,-0.5,0,3,3,3,,,,,0,1,1,1,,,,,,,,,,,,,,,,,,,84.1240086903883,None,84.12655520738917,None,84.12655520738917,None,j,86.12579966855992,None,0.027253769294475205,,,,,,,,,,,,,,,,,1,001,2020_Jul_06_2051,sonority,2020.1.3,60.02649519618351,
autoConditions/train1Block4.xlsx,autoConditions/train1Block4Test.xlsx,,,trainaudio/11_tokiko.wav,pngimages/11_compass.png,trainaudio/25_tapapi.wav,pngimages/25_apple.png,-0.5,0.5,0,3,3,3,,,,,0,2,2,2,,,,,,,,,,,,,,,,,,,86.19266761086766,None,86.19933764806774,None,86.19933764806774,None,j,88.19421878758294,None,-0.5063072954944801,,,,,,,,,,,,,,,,,1,001,2020_Jul_06_2051,sonority,2020.1.3,60.02649519618351,
autoConditions/train1Block4.xlsx,autoConditions/train1Block4Test.xlsx,,,,,,,,,0,3,3,3,,,,,,,,,,,,,,,,,,,,,,,,,,,,,,,,,,,,,,,,,,,,,,,,,,,,,1,001,2020_Jul_06_2051,sonority,2020.1.3,60.02649519618351,
autoConditions/train1Block5.xlsx,autoConditions/train1Block5Test.xlsx,trainaudio/21_papika.wav,pngimages/21_cheese.png,,,,,,,0,4,4,4,0,0,0,0,,,,,,,,,,,,,,,,,,,88.24434816558205,None,88.23686312060454,None,,,,,,,,,,,,,,,,,,,,,,,,,,,1,001,2020_Jul_06_2051,sonority,2020.1.3,60.02649519618351,
autoConditions/train1Block5.xlsx,autoConditions/train1Block5Test.xlsx,trainaudio/26_kapako.wav,pngimages/26_pineapple.png,,,,,,,0,4,4,4,0,1,1,1,,,,,,,,,,,,,,,,,,,89.76119075335447,None,89.76260411312978,89.76260411312978,,,,,,,,,,,,,,,,,,,,,,,,,,,1,001,2020_Jul_06_2051,sonority,2020.1.3,60.02649519618351,
autoConditions/train1Block5.xlsx,autoConditions/train1Block5Test.xlsx,trainaudio/09_tipata.wav,pngimages/09_plane.png,,,,,,,0,4,4,4,0,2,2,2,,,,,,,,,,,,,,,,,,,91.31251200234111,None,91.30424502566166,91.30424502566166,,,,,,,,,,,,,,,,,,,,,,,,,,,1,001,2020_Jul_06_2051,sonority,2020.1.3,60.02649519618351,
autoConditions/train1Block5.xlsx,autoConditions/train1Block5Test.xlsx,trainaudio/05_titopo.wav,pngimages/05_megaphone.png,,,,,,,0,4,4,4,0,3,3,3,,,,,,,,,,,,,,,,,,,92.81373566562834,None,92.81391845240432,92.81391845240432,,,,,,,,,,,,,,,,,,,,,,,,,,,1,001,2020_Jul_06_2051,sonority,2020.1.3,60.02649519618351,
autoConditions/train1Block5.xlsx,autoConditions/train1Block5Test.xlsx,trainaudio/24_takopa.wav,pngimages/24_banana.png,,,,,,,0,4,4,4,0,4,4,4,,,,,,,,,,,,,,,,,,,94.34847772708163,None,94.34635697001067,94.34635697001067,,,,,,,,,,,,,,,,,,,,,,,,,,,1,001,2020_Jul_06_2051,sonority,2020.1.3,60.02649519618351,
autoConditions/train1Block5.xlsx,autoConditions/train1Block5Test.xlsx,trainaudio/04_kitoti.wav,pngimages/04_ladder.png,,,,,,,0,4,4,4,0,5,5,5,,,,,,,,,,,,,,,,,,,95.88334861905896,None,95.884607586122,95.884607586122,,,,,,,,,,,,,,,,,,,,,,,,,,,1,001,2020_Jul_06_2051,sonority,2020.1.3,60.02649519618351,
autoConditions/train1Block5.xlsx,autoConditions/train1Block5Test.xlsx,,,trainaudio/21_papika.wav,pngimages/21_cheese.png,trainaudio/05_titopo.wav,pngimages/05_megaphone.png,0.5,-0.5,0,4,4,4,,,,,0,0,0,0,,,,,,,,,,,,,,,,,,,97.41787931089057,None,97.41472058468207,None,97.41472058468207,None,j,99.40350983843382,None,-0.4321700955333654,,,,,,,,,,,,,,,,,1,001,2020_Jul_06_2051,sonority,2020.1.3,60.02649519618351,
autoConditions/train1Block5.xlsx,autoConditions/train1Block5Test.xlsx,,,trainaudio/09_tipata.wav,pngimages/09_plane.png,trainaudio/04_kitoti.wav,pngimages/04_ladder.png,-0.5,0.5,0,4,4,4,,,,,0,1,1,1,,,,,,,,,,,,,,,,,,,99.48705880176567,None,99.47752621259133,None,99.47752621259133,None,j,101.47189875099866,None,-0.3670449898636434,,,,,,,,,,,,,,,,,1,001,2020_Jul_06_2051,sonority,2020.1.3,60.02649519618351,
autoConditions/train1Block5.xlsx,autoConditions/train1Block5Test.xlsx,,,trainaudio/24_takopa.wav,pngimages/24_banana.png,trainaudio/26_kapako.wav,pngimages/26_pineapple.png,0.5,-0.5,0,4,4,4,,,,,0,2,2,2,,,,,,,,,,,,,,,,,,,101.57215750699689,None,101.56595408392604,None,101.56595408392604,None,j,103.55705450866662,None,-0.353269338447717,,,,,,,,,,,,,,,,,1,001,2020_Jul_06_2051,sonority,2020.1.3,60.02649519618351,
autoConditions/train1Block5.xlsx,autoConditions/train1Block5Test.xlsx,,,,,,,,,0,4,4,4,,,,,,,,,,,,,,,,,,,,,,,,,,,,,,,,,,,,,,,,,,,,,,,,,,,,,1,001,2020_Jul_06_2051,sonority,2020.1.3,60.02649519618351,
autoConditions/train1Block6.xlsx,autoConditions/train1Block6Test.xlsx,trainaudio/12_pokika.wav,pngimages/12_pie.png,,,,,,,0,5,5,5,0,0,0,0,,,,,,,,,,,,,,,,,,,103.64060347199847,None,103.64606762997573,None,,,,,,,,,,,,,,,,,,,,,,,,,,,1,001,2020_Jul_06_2051,sonority,2020.1.3,60.02649519618351,
autoConditions/train1Block6.xlsx,autoConditions/train1Block6Test.xlsx,trainaudio/08_tipako.wav,pngimages/08_bell.png,,,,,,,0,5,5,5,0,1,1,1,,,,,,,,,,,,,,,,,,,105.17428962925334,None,105.16349958334467,105.16349958334467,,,,,,,,,,,,,,,,,,,,,,,,,,,1,001,2020_Jul_06_2051,sonority,2020.1.3,60.02649519618351,
autoConditions/train1Block6.xlsx,autoConditions/train1Block6Test.xlsx,trainaudio/20_tatito.wav,pngimages/20_pizza.png,,,,,,,0,5,5,5,0,2,2,2,,,,,,,,,,,,,,,,,,,106.69194850857895,None,106.68978806777159,106.68978806777159,,,,,,,,,,,,,,,,,,,,,,,,,,,1,001,2020_Jul_06_2051,sonority,2020.1.3,60.02649519618351,
autoConditions/train1Block6.xlsx,autoConditions/train1Block6Test.xlsx,trainaudio/27_pakapa.wav,pngimages/27_kiwi.png,,,,,,,0,5,5,5,0,3,3,3,,,,,,,,,,,,,,,,,,,108.22691979923111,None,108.22172478072753,108.22172478072753,,,,,,,,,,,,,,,,,,,,,,,,,,,1,001,2020_Jul_06_2051,sonority,2020.1.3,60.02649519618351,
autoConditions/train1Block6.xlsx,autoConditions/train1Block6Test.xlsx,trainaudio/15_kopota.wav,pngimages/15_barrel.png,,,,,,,0,5,5,5,0,4,4,4,,,,,,,,,,,,,,,,,,,109.76122809607769,None,109.75308681598108,109.75308681598108,,,,,,,,,,,,,,,,,,,,,,,,,,,1,001,2020_Jul_06_2051,sonority,2020.1.3,60.02649519618351,
autoConditions/train1Block6.xlsx,autoConditions/train1Block6Test.xlsx,trainaudio/23_patoko.wav,pngimages/23_lemon.png,,,,,,,0,5,5,5,0,5,5,5,,,,,,,,,,,,,,,,,,,111.2625072259456,None,111.26707485648512,111.26707485648512,,,,,,,,,,,,,,,,,,,,,,,,,,,1,001,2020_Jul_06_2051,sonority,2020.1.3,60.02649519618351,
autoConditions/train1Block6.xlsx,autoConditions/train1Block6Test.xlsx,,,trainaudio/12_pokika.wav,pngimages/12_pie.png,trainaudio/27_pakapa.wav,pngimages/27_kiwi.png,-0.5,0.5,0,5,5,5,,,,,0,0,0,0,,,,,,,,,,,,,,,,,,,112.81357058737485,None,112.81741824718483,None,112.81741824718483,None,j,114.8162583195226,None,-0.4269039786013309,,,,,,,,,,,,,,,,,1,001,2020_Jul_06_2051,sonority,2020.1.3,60.02649519618351,
autoConditions/train1Block6.xlsx,autoConditions/train1Block6Test.xlsx,,,trainaudio/20_tatito.wav,pngimages/20_pizza.png,trainaudio/23_patoko.wav,pngimages/23_lemon.png,0.5,-0.5,0,5,5,5,,,,,0,1,1,1,,,,,,,,,,,,,,,,,,,114.84967790485535,None,114.85549158920185,None,114.85549158920185,None,j,116.85111618496012,None,-0.5647205280401977,,,,,,,,,,,,,,,,,1,001,2020_Jul_06_2051,sonority,2020.1.3,60.02649519618351,
autoConditions/train1Block6.xlsx,autoConditions/train1Block6Test.xlsx,,,trainaudio/15_kopota.wav,pngimages/15_barrel.png,trainaudio/08_tipako.wav,pngimages/08_bell.png,-0.5,0.5,0,5,5,5,,,,,0,2,2,2,,,,,,,,,,,,,,,,,,,116.90124556295923,None,116.90480663908238,None,116.90480663908238,None,j,118.90307543192466,None,-0.41349722346058115,,,,,,,,,,,,,,,,,1,001,2020_Jul_06_2051,sonority,2020.1.3,60.02649519618351,
autoConditions/train1Block6.xlsx,autoConditions/train1Block6Test.xlsx,,,,,,,,,0,5,5,5,,,,,,,,,,,,,,,,,,,,,,,,,,,,,,,,,,,,,,,,,,,,,,,,,,,,,1,001,2020_Jul_06_2051,sonority,2020.1.3,60.02649519618351,
autoConditions/train1Block7.xlsx,autoConditions/train1Block7Test.xlsx,trainaudio/16_kotapi.wav,pngimages/16_icecream.png,,,,,,,0,6,6,6,0,0,0,0,,,,,,,,,,,,,,,,,,,118.93649501725741,None,118.92744977139228,None,,,,,,,,,,,,,,,,,,,,,,,,,,,1,001,2020_Jul_06_2051,sonority,2020.1.3,60.02649519618351,
autoConditions/train1Block7.xlsx,autoConditions/train1Block7Test.xlsx,trainaudio/03_kikita.wav,pngimages/03_box.png,,,,,,,0,6,6,6,0,1,1,1,,,,,,,,,,,,,,,,,,,120.4366632671794,None,120.43971528910333,120.43971528910333,,,,,,,,,,,,,,,,,,,,,,,,,,,1,001,2020_Jul_06_2051,sonority,2020.1.3,60.02649519618351,
autoConditions/train1Block7.xlsx,autoConditions/train1Block7Test.xlsx,trainaudio/01_kitipi.wav,pngimages/01_gift.png,,,,,,,0,6,6,6,0,2,2,2,,,,,,,,,,,,,,,,,,,121.95488511921431,None,121.95777327114774,121.95777327114774,,,,,,,,,,,,,,,,,,,,,,,,,,,1,001,2020_Jul_06_2051,sonority,2020.1.3,60.02649519618351,
autoConditions/train1Block7.xlsx,autoConditions/train1Block7Test.xlsx,trainaudio/26_kapako.wav,pngimages/26_pineapple.png,,,,,,,0,6,6,6,0,3,3,3,,,,,,,,,,,,,,,,,,,123.48934025715863,None,123.4809070694755,123.4809070694755,,,,,,,,,,,,,,,,,,,,,,,,,,,1,001,2020_Jul_06_2051,sonority,2020.1.3,60.02649519618351,
autoConditions/train1Block7.xlsx,autoConditions/train1Block7Test.xlsx,trainaudio/19_papipi.wav,pngimages/19_burger.png,,,,,,,0,6,6,6,0,4,4,4,,,,,,,,,,,,,,,,,,,124.99043660025055,None,124.99065450202033,124.99065450202033,,,,,,,,,,,,,,,,,,,,,,,,,,,1,001,2020_Jul_06_2051,sonority,2020.1.3,60.02649519618351,
autoConditions/train1Block7.xlsx,autoConditions/train1Block7Test.xlsx,trainaudio/06_titoka.wav,pngimages/06_tent.png,,,,,,,0,6,6,6,0,5,5,5,,,,,,,,,,,,,,,,,,,126.49180438605836,None,126.49449090992857,126.49449090992857,,,,,,,,,,,,,,,,,,,,,,,,,,,1,001,2020_Jul_06_2051,sonority,2020.1.3,60.02649519618351,
autoConditions/train1Block7.xlsx,autoConditions/train1Block7Test.xlsx,,,trainaudio/16_kotapi.wav,pngimages/16_icecream.png,trainaudio/26_kapako.wav,pngimages/26_pineapple.png,-0.5,0.5,0,6,6,6,,,,,0,0,0,0,,,,,,,,,,,,,,,,,,,128.04310260262284,None,128.03697382724204,None,128.03697382724204,None,j,130.0287274664588,None,0.5020024988334626,,,,,,,,,,,,,,,,,1,001,2020_Jul_06_2051,sonority,2020.1.3,60.02649519618351,
autoConditions/train1Block7.xlsx,autoConditions/train1Block7Test.xlsx,,,trainaudio/01_kitipi.wav,pngimages/01_gift.png,trainaudio/06_titoka.wav,pngimages/06_tent.png,-0.5,0.5,0,6,6,6,,,,,0,1,1,1,,,,,,,,,,,,,,,,,,,130.5791405962984,None,130.5689981389005,None,130.5689981389005,None,j,132.56414849340217,None,-0.056400727815344,,,,,,,,,,,,,,,,,1,001,2020_Jul_06_2051,sonority,2020.1.3,60.02649519618351,
autoConditions/train1Block7.xlsx,autoConditions/train1Block7Test.xlsx,,,trainaudio/19_papipi.wav,pngimages/19_burger.png,trainaudio/03_kikita.wav,pngimages/03_box.png,0.5,-0.5,0,6,6,6,,,,,0,2,2,2,,,,,,,,,,,,,,,,,,,132.59756807873492,None,132.59847245983838,None,132.59847245983838,None,j,134.5993307005847,None,-0.6059496888919966,,,,,,,,,,,,,,,,,1,001,2020_Jul_06_2051,sonority,2020.1.3,60.02649519618351,
autoConditions/train1Block7.xlsx,autoConditions/train1Block7Test.xlsx,,,,,,,,,0,6,6,6,,,,,,,,,,,,,,,,,,,,,,,,,,,,,,,,,,,,,,,,,,,,,,,,,,,,,1,001,2020_Jul_06_2051,sonority,2020.1.3,60.02649519618351,
autoConditions/train1Block8.xlsx,autoConditions/train1Block8Test.xlsx,trainaudio/11_tokiko.wav,pngimages/11_compass.png,,,,,,,0,7,7,7,0,0,0,0,,,,,,,,,,,,,,,,,,,134.63275028591744,None,134.6353216854768,None,,,,,,,,,,,,,,,,,,,,,,,,,,,1,001,2020_Jul_06_2051,sonority,2020.1.3,60.02649519618351,
autoConditions/train1Block8.xlsx,autoConditions/train1Block8Test.xlsx,trainaudio/22_kakoki.wav,pngimages/22_egg.png,,,,,,,0,7,7,7,0,1,1,1,,,,,,,,,,,,,,,,,,,136.18307362708148,None,136.17417492026289,136.17417492026289,,,,,,,,,,,,,,,,,,,,,,,,,,,1,001,2020_Jul_06_2051,sonority,2020.1.3,60.02649519618351,
autoConditions/train1Block8.xlsx,autoConditions/train1Block8Test.xlsx,trainaudio/13_kopopi.wav,pngimages/13_toast.png,,,,,,,0,7,7,7,0,2,2,2,,,,,,,,,,,,,,,,,,,137.68438787195774,None,137.68879578589986,137.68879578589986,,,,,,,,,,,,,,,,,,,,,,,,,,,1,001,2020_Jul_06_2051,sonority,2020.1.3,60.02649519618351,
autoConditions/train1Block8.xlsx,autoConditions/train1Block8Test.xlsx,trainaudio/09_tipata.wav,pngimages/09_plane.png,,,,,,,0,7,7,7,0,3,3,3,,,,,,,,,,,,,,,,,,,139.21903482086492,None,139.22132190220873,139.22132190220873,,,,,,,,,,,,,,,,,,,,,,,,,,,1,001,2020_Jul_06_2051,sonority,2020.1.3,60.02649519618351,
autoConditions/train1Block8.xlsx,autoConditions/train1Block8Test.xlsx,trainaudio/10_tokiti.wav,pngimages/100_bicycle.png,,,,,,,0,7,7,7,0,4,4,4,,,,,,,,,,,,,,,,,,,140.7534858431871,None,140.7530418838869,140.7530418838869,,,,,,,,,,,,,,,,,,,,,,,,,,,1,001,2020_Jul_06_2051,sonority,2020.1.3,60.02649519618351,
autoConditions/train1Block8.xlsx,autoConditions/train1Block8Test.xlsx,trainaudio/25_tapapi.wav,pngimages/25_apple.png,,,,,,,0,7,7,7,0,5,5,5,,,,,,,,,,,,,,,,,,,142.2547468114266,None,142.26040829303383,142.26040829303383,,,,,,,,,,,,,,,,,,,,,,,,,,,1,001,2020_Jul_06_2051,sonority,2020.1.3,60.02649519618351,
autoConditions/train1Block8.xlsx,autoConditions/train1Block8Test.xlsx,,,trainaudio/11_tokiko.wav,pngimages/11_compass.png,trainaudio/09_tipata.wav,pngimages/09_plane.png,-0.5,0.5,0,7,7,7,,,,,0,0,0,0,,,,,,,,,,,,,,,,,,,143.80615565911577,None,143.80798439534556,None,143.80798439534556,None,j,145.80862741514284,None,-0.7931919193215435,,,,,,,,,,,,,,,,,1,001,2020_Jul_06_2051,sonority,2020.1.3,60.02649519618351,
autoConditions/train1Block8.xlsx,autoConditions/train1Block8Test.xlsx,,,trainaudio/13_kopopi.wav,pngimages/13_toast.png,trainaudio/25_tapapi.wav,pngimages/25_apple.png,-0.5,0.5,0,7,7,7,,,,,0,1,1,1,,,,,,,,,,,,,,,,,,,145.85875679314196,None,145.8508956778678,None,145.8508956778678,None,j,147.82704844094405,None,-0.5082601424801396,,,,,,,,,,,,,,,,,1,001,2020_Jul_06_2051,sonority,2020.1.3,60.02649519618351,
autoConditions/train1Block8.xlsx,autoConditions/train1Block8Test.xlsx,,,trainaudio/10_tokiti.wav,pngimages/100_bicycle.png,trainaudio/22_kakoki.wav,pngimages/22_egg.png,0.5,-0.5,0,7,7,7,,,,,0,2,2,2,,,,,,,,,,,,,,,,,,,147.87717781894318,None,147.88367949295207,None,147.88367949295207,None,j,149.87854099826654,None,-1.4049544618901564,,,,,,,,,,,,,,,,,1,001,2020_Jul_06_2051,sonority,2020.1.3,60.02649519618351,
autoConditions/train1Block8.xlsx,autoConditions/train1Block8Test.xlsx,,,,,,,,,0,7,7,7,,,,,,,,,,,,,,,,,,,,,,,,,,,,,,,,,,,,,,,,,,,,,,,,,,,,,1,001,2020_Jul_06_2051,sonority,2020.1.3,60.02649519618351,
autoConditions/train1Block9.xlsx,autoConditions/train1Block9Test.xlsx,trainaudio/07_pitapi.wav,pngimages/07_suitcase.png,,,,,,,0,8,8,8,0,0,0,0,,,,,,,,,,,,,,,,,,,149.9119605835993,None,149.9179086866643,None,,,,,,,,,,,,,,,,,,,,,,,,,,,1,001,2020_Jul_06_2051,sonority,2020.1.3,60.02649519618351,
autoConditions/train1Block9.xlsx,autoConditions/train1Block9Test.xlsx,trainaudio/18_popata.wav,pngimages/18_donut.png,,,,,,,0,8,8,8,0,1,1,1,,,,,,,,,,,,,,,,,,,151.42921095844068,None,151.43283916839573,151.43283916839573,,,,,,,,,,,,,,,,,,,,,,,,,,,1,001,2020_Jul_06_2051,sonority,2020.1.3,60.02649519618351,
autoConditions/train1Block9.xlsx,autoConditions/train1Block9Test.xlsx,trainaudio/17_kotako.wav,pngimages/17_cracker.png,,,,,,,0,8,8,8,0,2,2,2,,,,,,,,,,,,,,,,,,,152.9470869466226,None,152.95121545089933,152.95121545089933,,,,,,,,,,,,,,,,,,,,,,,,,,,1,001,2020_Jul_06_2051,sonority,2020.1.3,60.02649519618351,
autoConditions/train1Block9.xlsx,autoConditions/train1Block9Test.xlsx,trainaudio/14_pokoto.wav,pngimages/14_coffee.png,,,,,,,0,8,8,8,0,3,3,3,,,,,,,,,,,,,,,,,,,154.46488704109507,None,154.46496825868962,154.46496825868962,,,,,,,,,,,,,,,,,,,,,,,,,,,1,001,2020_Jul_06_2051,sonority,2020.1.3,60.02649519618351,
autoConditions/train1Block9.xlsx,autoConditions/train1Block9Test.xlsx,trainaudio/21_papika.wav,pngimages/21_cheese.png,,,,,,,0,8,8,8,0,4,4,4,,,,,,,,,,,,,,,,,,,155.98279923925003,None,155.98337965618703,155.98337965618703,,,,,,,,,,,,,,,,,,,,,,,,,,,1,001,2020_Jul_06_2051,sonority,2020.1.3,60.02649519618351,
autoConditions/train1Block9.xlsx,autoConditions/train1Block9Test.xlsx,trainaudio/02_pitito.wav,pngimages/02_pallet.png,,,,,,,0,8,8,8,0,5,5,5,,,,,,,,,,,,,,,,,,,157.4840300010459,None,157.48419315363572,157.48419315363572,,,,,,,,,,,,,,,,,,,,,,,,,,,1,001,2020_Jul_06_2051,sonority,2020.1.3,60.02649519618351,
autoConditions/train1Block9.xlsx,autoConditions/train1Block9Test.xlsx,,,trainaudio/07_pitapi.wav,pngimages/07_suitcase.png,trainaudio/14_pokoto.wav,pngimages/14_coffee.png,0.5,-0.5,0,8,8,8,,,,,0,0,0,0,,,,,,,,,,,,,,,,,,,159.00201733775322,None,158.99947667325614,None,158.99947667325614,None,j,160.98777620494366,None,-11.058129669487244,,,,,,,,,,,,,,,,,1,001,2020_Jul_06_2051,sonority,2020.1.3,60.02649519618351,
autoConditions/train1Block9.xlsx,autoConditions/train1Block9Test.xlsx,,,trainaudio/17_kotako.wav,pngimages/17_cracker.png,trainaudio/02_pitito.wav,pngimages/02_pallet.png,-0.5,0.5,0,8,8,8,,,,,0,1,1,1,,,,,,,,,,,,,,,,,,,161.0211957902764,None,161.0156707285496,None,161.0156707285496,None,j,163.0062380094605,None,4.171271325278212,,,,,,,,,,,,,,,,,1,001,2020_Jul_06_2051,sonority,2020.1.3,60.02649519618351,
autoConditions/train1Block9.xlsx,autoConditions/train1Block9Test.xlsx,,,trainaudio/21_papika.wav,pngimages/21_cheese.png,trainaudio/18_popata.wav,pngimages/18_donut.png,0.5,-0.5,0,8,8,8,,,,,0,2,2,2,,,,,,,,,,,,,,,,,,,167.22665775828065,None,167.2307840725989,None,167.2307840725989,None,j,169.22797034180257,None,3.1324828455690295,,,,,,,,,,,,,,,,,1,001,2020_Jul_06_2051,sonority,2020.1.3,60.02649519618351,
autoConditions/train1Block9.xlsx,autoConditions/train1Block9Test.xlsx,,,,,,,,,0,8,8,8,,,,,,,,,,,,,,,,,,,,,,,,,,,,,,,,,,,,,,,,,,,,,,,,,,,,,1,001,2020_Jul_06_2051,sonority,2020.1.3,60.02649519618351,
autoConditions/train2Block1.xlsx,autoConditions/train2Block1Test.xlsx,trainaudio/13_kopopi.wav,pngimages/13_toast.png,,,,,,,,,,,,,,,,,,,0,0,0,0,0,0,0,0,,,,,,,,,,,,,,,,,,,,,172.37945040120394,None,174.41458945093038,None,174.4063129969727,None,,,,,,,,,,,1,001,2020_Jul_06_2051,sonority,2020.1.3,60.02649519618351,
autoConditions/train2Block1.xlsx,autoConditions/train2Block1Test.xlsx,trainaudio/10_tokiti.wav,pngimages/100_bicycle.png,,,,,,,,,,,,,,,,,,,0,0,0,0,0,1,1,1,,,,,,,,,,,,,,,,,,,,,,,175.93282644393622,None,175.93606540602923,175.93606540602923,,,,,,,,,,,1,001,2020_Jul_06_2051,sonority,2020.1.3,60.02649519618351,
autoConditions/train2Block1.xlsx,autoConditions/train2Block1Test.xlsx,trainaudio/23_patoko.wav,pngimages/23_lemon.png,,,,,,,,,,,,,,,,,,,0,0,0,0,0,2,2,2,,,,,,,,,,,,,,,,,,,,,,,177.45075457599015,None,177.45696354949905,177.45696354949905,,,,,,,,,,,1,001,2020_Jul_06_2051,sonority,2020.1.3,60.02649519618351,
autoConditions/train2Block1.xlsx,autoConditions/train2Block1Test.xlsx,trainaudio/26_kapako.wav,pngimages/26_pineapple.png,,,,,,,,,,,,,,,,,,,0,0,0,0,0,3,3,3,,,,,,,,,,,,,,,,,,,,,,,178.98512136007486,None,178.98805259396613,178.98805259396613,,,,,,,,,,,1,001,2020_Jul_06_2051,sonority,2020.1.3,60.02649519618351,
autoConditions/train2Block1.xlsx,autoConditions/train2Block1Test.xlsx,trainaudio/18_popata.wav,pngimages/18_donut.png,,,,,,,,,,,,,,,,,,,0,0,0,0,0,4,4,4,,,,,,,,,,,,,,,,,,,,,,,180.5366960034182,None,180.53547728645208,180.53547728645208,,,,,,,,,,,1,001,2020_Jul_06_2051,sonority,2020.1.3,60.02649519618351,
autoConditions/train2Block1.xlsx,autoConditions/train2Block1Test.xlsx,trainaudio/14_pokoto.wav,pngimages/14_coffee.png,,,,,,,,,,,,,,,,,,,0,0,0,0,0,5,5,5,,,,,,,,,,,,,,,,,,,,,,,182.054757799019,None,182.04613468829484,182.04613468829484,,,,,,,,,,,1,001,2020_Jul_06_2051,sonority,2020.1.3,60.02649519618351,
autoConditions/train2Block1.xlsx,autoConditions/train2Block1Test.xlsx,trainaudio/11_tokiko.wav,pngimages/11_compass.png,,,,,,,,,,,,,,,,,,,0,0,0,0,0,6,6,6,,,,,,,,,,,,,,,,,,,,,,,183.55568876180624,None,183.55893561533594,183.55893561533594,,,,,,,,,,,1,001,2020_Jul_06_2051,sonority,2020.1.3,60.02649519618351,
autoConditions/train2Block1.xlsx,autoConditions/train2Block1Test.xlsx,trainaudio/22_kakoki.wav,pngimages/22_egg.png,,,,,,,,,,,,,,,,,,,0,0,0,0,0,7,7,7,,,,,,,,,,,,,,,,,,,,,,,185.10718143239794,None,185.09781301527983,185.09781301527983,,,,,,,,,,,1,001,2020_Jul_06_2051,sonority,2020.1.3,60.02649519618351,
autoConditions/train2Block1.xlsx,autoConditions/train2Block1Test.xlsx,trainaudio/05_titopo.wav,pngimages/05_megaphone.png,,,,,,,,,,,,,,,,,,,0,0,0,0,0,8,8,8,,,,,,,,,,,,,,,,,,,,,,,186.62514845526022,None,186.6164434095408,186.6164434095408,,,,,,,,,,,1,001,2020_Jul_06_2051,sonority,2020.1.3,60.02649519618351,
autoConditions/train2Block1.xlsx,autoConditions/train2Block1Test.xlsx,,,trainaudio/13_kopopi.wav,pngimages/13_toast.png,trainaudio/26_kapako.wav,pngimages/26_pineapple.png,0.5,-0.5,,,,,,,,,,,,,0,0,0,0,,,,,0,0,0,0,,,,,,,,,,,,,,,,,,,,,,,188.15952316853802,None,j,0.58238261679071,190.14527414429176,None,188.15741222855286,None,188.15741222855286,None,1,001,2020_Jul_06_2051,sonority,2020.1.3,60.02649519618351,
autoConditions/train2Block1.xlsx,autoConditions/train2Block1Test.xlsx,,,trainaudio/10_tokiti.wav,pngimages/100_bicycle.png,trainaudio/18_popata.wav,pngimages/18_donut.png,0.5,-0.5,,,,,,,,,,,,,0,0,0,0,,,,,0,1,1,1,,,,,,,,,,,,,,,,,,,,,,,190.7791794115794,None,j,0.2288772904430516,192.78082426605397,None,190.78124413569458,None,190.78124413569458,None,1,001,2020_Jul_06_2051,sonority,2020.1.3,60.02649519618351,
autoConditions/train2Block1.xlsx,autoConditions/train2Block1Test.xlsx,,,trainaudio/23_patoko.wav,pngimages/23_lemon.png,trainaudio/14_pokoto.wav,pngimages/14_coffee.png,0.5,-0.5,,,,,,,,,,,,,0,0,0,0,,,,,0,2,2,2,,,,,,,,,,,,,,,,,,,,,,,193.04792434491975,None,j,0.7616405273874989,195.0491489144042,None,193.05276575917378,None,193.05276575917378,None,1,001,2020_Jul_06_2051,sonority,2020.1.3,60.02649519618351,
autoConditions/train2Block1.xlsx,autoConditions/train2Block1Test.xlsx,,,trainaudio/26_kapako.wav,pngimages/26_pineapple.png,trainaudio/11_tokiko.wav,pngimages/11_compass.png,-0.5,0.5,,,,,,,,,,,,,0,0,0,0,,,,,0,3,3,3,,,,,,,,,,,,,,,,,,,,,,,195.90006139461184,None,j,2.754814247324248,197.88539786236652,None,195.89950729504926,None,195.89950729504926,None,1,001,2020_Jul_06_2051,sonority,2020.1.3,60.02649519618351,
autoConditions/train2Block1.xlsx,autoConditions/train2Block1Test.xlsx,,,trainaudio/18_popata.wav,pngimages/18_donut.png,trainaudio/22_kakoki.wav,pngimages/22_egg.png,0.5,-0.5,,,,,,,,,,,,,0,0,0,0,,,,,0,4,4,4,,,,,,,,,,,,,,,,,,,,,,,200.70442260182173,None,j,0.5715483184321783,202.70566910873458,None,200.70913869707147,None,200.70913869707147,None,1,001,2020_Jul_06_2051,sonority,2020.1.3,60.02649519618351,
autoConditions/train2Block1.xlsx,autoConditions/train2Block1Test.xlsx,,,trainaudio/14_pokoto.wav,pngimages/14_coffee.png,trainaudio/05_titopo.wav,pngimages/05_megaphone.png,-0.5,0.5,,,,,,,,,,,,,0,0,0,0,,,,,0,5,5,5,,,,,,,,,,,,,,,,,,,,,,,203.32308244736925,None,j,1.3432789327780483,205.30793663140503,None,203.32446937651548,None,203.32446937651548,None,1,001,2020_Jul_06_2051,sonority,2020.1.3,60.02649519618351,
autoConditions/train2Block1.xlsx,autoConditions/train2Block1Test.xlsx,,,trainaudio/11_tokiko.wav,pngimages/11_compass.png,trainaudio/13_kopopi.wav,pngimages/13_toast.png,-0.5,0.5,,,,,,,,,,,,,0,0,0,0,,,,,0,6,6,6,,,,,,,,,,,,,,,,,,,,,,,206.69388511958533,None,j,0.6051050410460448,208.69410947799042,None,206.69920681638177,None,206.69920681638177,None,1,001,2020_Jul_06_2051,sonority,2020.1.3,60.02649519618351,
autoConditions/train2Block1.xlsx,autoConditions/train2Block1Test.xlsx,,,trainaudio/22_kakoki.wav,pngimages/22_egg.png,trainaudio/10_tokiti.wav,pngimages/100_bicycle.png,-0.5,0.5,,,,,,,,,,,,,0,0,0,0,,,,,0,7,7,7,,,,,,,,,,,,,,,,,,,,,,,209.39515681112243,None,j,0.512629883014597,211.37986196407292,None,209.39193774752493,None,209.39193774752493,None,1,001,2020_Jul_06_2051,sonority,2020.1.3,60.02649519618351,
autoConditions/train2Block1.xlsx,autoConditions/train2Block1Test.xlsx,,,trainaudio/05_titopo.wav,pngimages/05_megaphone.png,trainaudio/23_patoko.wav,pngimages/23_lemon.png,0.5,-0.5,,,,,,,,,,,,,0,0,0,0,,,,,0,8,8,8,,,,,,,,,,,,,,,,,,,,,,,211.94723903609267,None,j,0.5766267777944449,213.93157559484825,None,211.9453814527078,None,211.9453814527078,None,1,001,2020_Jul_06_2051,sonority,2020.1.3,60.02649519618351,
autoConditions/train2Block1.xlsx,autoConditions/train2Block1Test.xlsx,,,,,,,,,,,,,,,,,,,,,0,0,0,0,,,,,,,,,,,,,,,,,,,,,,,,,,,,,,,,,,,,,,,,,1,001,2020_Jul_06_2051,sonority,2020.1.3,60.02649519618351,
autoConditions/train2Block2.xlsx,autoConditions/train2Block2Test.xlsx,trainaudio/12_pokika.wav,pngimages/12_pie.png,,,,,,,,,,,,,,,,,,,0,1,1,1,0,0,0,0,,,,,,,,,,,,,,,,,,,,,,,214.59971262338513,None,214.59788607712835,None,,,,,,,,,,,1,001,2020_Jul_06_2051,sonority,2020.1.3,60.02649519618351,
autoConditions/train2Block2.xlsx,autoConditions/train2Block2Test.xlsx,trainaudio/20_tatito.wav,pngimages/20_pizza.png,,,,,,,,,,,,,,,,,,,0,1,1,1,0,1,1,1,,,,,,,,,,,,,,,,,,,,,,,216.1160565026774,None,216.11079197157233,216.11079197157233,,,,,,,,,,,1,001,2020_Jul_06_2051,sonority,2020.1.3,60.02649519618351,
autoConditions/train2Block2.xlsx,autoConditions/train2Block2Test.xlsx,trainaudio/02_pitito.wav,pngimages/02_pallet.png,,,,,,,,,,,,,,,,,,,0,1,1,1,0,2,2,2,,,,,,,,,,,,,,,,,,,,,,,217.61725365979365,None,217.6179095550906,217.6179095550906,,,,,,,,,,,1,001,2020_Jul_06_2051,sonority,2020.1.3,60.02649519618351,
autoConditions/train2Block2.xlsx,autoConditions/train2Block2Test.xlsx,trainaudio/21_papika.wav,pngimages/21_cheese.png,,,,,,,,,,,,,,,,,,,0,1,1,1,0,3,3,3,,,,,,,,,,,,,,,,,,,,,,,219.135416193906,None,219.13860380502592,219.13860380502592,,,,,,,,,,,1,001,2020_Jul_06_2051,sonority,2020.1.3,60.02649519618351,
autoConditions/train2Block2.xlsx,autoConditions/train2Block2Test.xlsx,trainaudio/15_kopota.wav,pngimages/15_barrel.png,,,,,,,,,,,,,,,,,,,0,1,1,1,0,4,4,4,,,,,,,,,,,,,,,,,,,,,,,220.70348465379502,None,220.69302204580163,220.69302204580163,,,,,,,,,,,1,001,2020_Jul_06_2051,sonority,2020.1.3,60.02649519618351,
autoConditions/train2Block2.xlsx,autoConditions/train2Block2Test.xlsx,trainaudio/24_takopa.wav,pngimages/24_banana.png,,,,,,,,,,,,,,,,,,,0,1,1,1,0,5,5,5,,,,,,,,,,,,,,,,,,,,,,,222.25464135316142,None,222.24658997500956,222.24658997500956,,,,,,,,,,,1,001,2020_Jul_06_2051,sonority,2020.1.3,60.02649519618351,
