condFiles,testFiles,audio,imageLoc,audioTrue,imageTrue,audioFalse,imageFalse,truePos,falsePos,train1blocks.thisRepN,train1blocks.thisTrialN,train1blocks.thisN,train1blocks.thisIndex,blockwords1.thisRepN,blockwords1.thisTrialN,blockwords1.thisN,blockwords1.thisIndex,blocktest1.thisRepN,blocktest1.thisTrialN,blocktest1.thisN,blocktest1.thisIndex,instructions.started,instructions.stopped,stimulitrain1.started,stimulitrain1.stopped,imagetrain1.started,imagetrain1.stopped,stimulitest1.started,stimulitest1.stopped,correct.started,correct.stopped,incorrect.started,incorrect.stopped,train1TestAnswer.keys,train1TestAnswer.rt,train1TestAnswer.started,train1TestAnswer.stopped,participant,session,date,expName,psychopyVersion,frameRate,
autoConditions/train1Block1.xlsx,autoConditions/train1Block1Test.xlsx,trainaudio/18_popata.wav,pngimages/18_donut.png,,,,,,,0,0,0,0,0,0,0,0,,,,,11.032009774808103,None,13.035707874935905,None,13.056663901517823,None,,,,,,,,,,,1,001,2020_Jul_05_2120,sonority,2020.1.3,59.96221288930029,
autoConditions/train1Block1.xlsx,autoConditions/train1Block1Test.xlsx,trainaudio/27_pakapa.wav,pngimages/27_kiwi.png,,,,,,,0,0,0,0,0,1,1,1,,,,,,,13.485889019237582,None,13.48191974070869,None,,,,,,,,,,,1,001,2020_Jul_05_2120,sonority,2020.1.3,59.96221288930029,
autoConditions/train1Block1.xlsx,autoConditions/train1Block1Test.xlsx,trainaudio/10_tokiti.wav,pngimages/100_bicycle.png,,,,,,,0,0,0,0,0,2,2,2,,,,,,,13.986091968822073,None,13.986257198102976,None,,,,,,,,,,,1,001,2020_Jul_05_2120,sonority,2020.1.3,59.96221288930029,
autoConditions/train1Block1.xlsx,autoConditions/train1Block1Test.xlsx,trainaudio/22_kakoki.wav,pngimages/22_egg.png,,,,,,,0,0,0,0,0,3,3,3,,,,,,,14.486453879848703,None,14.490811009194658,None,,,,,,,,,,,1,001,2020_Jul_05_2120,sonority,2020.1.3,59.96221288930029,
autoConditions/train1Block1.xlsx,autoConditions/train1Block1Test.xlsx,trainaudio/01_pitito.wav,pngimages/01_gift.png,,,,,,,0,0,0,0,0,4,4,4,,,,,,,14.986934351189483,None,14.981344119049027,None,,,,,,,,,,,1,001,2020_Jul_05_2120,sonority,2020.1.3,59.96221288930029,
autoConditions/train1Block1.xlsx,autoConditions/train1Block1Test.xlsx,trainaudio/24_takopa.wav,pngimages/24_banana.png,,,,,,,0,0,0,0,0,5,5,5,,,,,,,15.520700970872712,None,15.515504404289459,None,,,,,,,,,,,1,001,2020_Jul_05_2120,sonority,2020.1.3,59.96221288930029,
autoConditions/train1Block1.xlsx,autoConditions/train1Block1Test.xlsx,,,trainaudio/10_tokiti.wav,pngimages/100_bicycle.png,trainaudio/24_takopa.wav,pngimages/24_banana.png,-0.5,0.5,0,0,0,0,,,,,0,0,0,1,,,,,,,16.054208570250193,None,16.055440540303607,None,16.055440540303607,None,j,3.8214553391990194,18.040334672359677,None,1,001,2020_Jul_05_2120,sonority,2020.1.3,59.96221288930029,
autoConditions/train1Block1.xlsx,autoConditions/train1Block1Test.xlsx,,,trainaudio/18_popata.wav,pngimages/18_donut.png,trainaudio/22_kakoki.wav,pngimages/22_egg.png,0.5,-0.5,0,0,0,0,,,,,0,1,1,0,,,,,,,21.926762499145116,None,21.922058297692274,None,21.922058297692274,None,f,1.3615972566494747,23.911748458809598,None,1,001,2020_Jul_05_2120,sonority,2020.1.3,59.96221288930029,
autoConditions/train1Block1.xlsx,autoConditions/train1Block1Test.xlsx,,,trainaudio/01_pitito.wav,pngimages/01_gift.png,trainaudio/27_pakapa.wav,pngimages/27_kiwi.png,-0.5,0.5,0,0,0,0,,,,,0,2,2,2,,,,,,,25.31285892342057,None,25.316382354751113,None,25.316382354751113,None,j,0.050410788837325526,27.314737235981738,None,1,001,2020_Jul_05_2120,sonority,2020.1.3,59.96221288930029,
autoConditions/train1Block1.xlsx,autoConditions/train1Block1Test.xlsx,,,,,,,,,0,0,0,0,,,,,,,,,,,,,,,,,,,,,,,,,1,001,2020_Jul_05_2120,sonority,2020.1.3,59.96221288930029,
autoConditions/train1Block2.xlsx,autoConditions/train1Block2Test.xlsx,trainaudio/15_kopota.wav,pngimages/15_barrel.png,,,,,,,0,1,1,1,0,0,0,0,,,,,,,27.431500191999294,None,27.424163120869707,None,,,,,,,,,,,1,001,2020_Jul_05_2120,sonority,2020.1.3,59.96221288930029,
autoConditions/train1Block2.xlsx,autoConditions/train1Block2Test.xlsx,trainaudio/16_kotapi.wav,pngimages/16_icecream.png,,,,,,,0,1,1,1,0,1,1,1,,,,,,,27.94770410214951,27.93826443556827,27.93826443556827,27.93826443556827,,,,,,,,,,,1,001,2020_Jul_05_2120,sonority,2020.1.3,59.96221288930029,
autoConditions/train1Block2.xlsx,autoConditions/train1Block2Test.xlsx,trainaudio/06_titoka.wav,pngimages/06_tent.png,,,,,,,0,1,1,1,0,2,2,2,,,,,,,28.464670498606573,28.457893152990437,28.457893152990437,28.457893152990437,,,,,,,,,,,1,001,2020_Jul_05_2120,sonority,2020.1.3,59.96221288930029,
autoConditions/train1Block2.xlsx,autoConditions/train1Block2Test.xlsx,trainaudio/04_kitoti.wav,pngimages/04_ladder.png,,,,,,,0,1,1,1,0,3,3,3,,,,,,,28.98173733150943,28.976528833378325,28.976528833378325,28.976528833378325,,,,,,,,,,,1,001,2020_Jul_05_2120,sonority,2020.1.3,59.96221288930029,
autoConditions/train1Block2.xlsx,autoConditions/train1Block2Test.xlsx,trainaudio/23_patoko.wav,pngimages/23_lemon.png,,,,,,,0,1,1,1,0,4,4,4,,,,,,,29.49910094278166,29.49208572137286,29.49208572137286,29.49208572137286,,,,,,,,,,,1,001,2020_Jul_05_2120,sonority,2020.1.3,59.96221288930029,
autoConditions/train1Block2.xlsx,autoConditions/train1Block2Test.xlsx,trainaudio/02_kitipi.wav,pngimages/02_pallet.png,,,,,,,0,1,1,1,0,5,5,5,,,,,,,30.01582833070497,30.00756747082596,30.00756747082596,30.00756747082596,,,,,,,,,,,1,001,2020_Jul_05_2120,sonority,2020.1.3,59.96221288930029,
autoConditions/train1Block2.xlsx,autoConditions/train1Block2Test.xlsx,,,trainaudio/23_patoko.wav,pngimages/23_lemon.png,trainaudio/16_kotapi.wav,pngimages/16_icecream.png,-0.5,0.5,0,1,1,1,,,,,0,0,0,2,,,,,,,30.533050349242693,None,30.531175510423054,None,30.531175510423054,None,f,0.1443679508065543,32.51886298392128,None,1,001,2020_Jul_05_2120,sonority,2020.1.3,59.96221288930029,
autoConditions/train1Block2.xlsx,autoConditions/train1Block2Test.xlsx,,,trainaudio/15_kopota.wav,pngimages/15_barrel.png,trainaudio/04_kitoti.wav,pngimages/04_ladder.png,0.5,-0.5,0,1,1,1,,,,,0,1,1,0,,,,,,,32.71899698728485,None,32.72063262878146,None,32.72063262878146,None,f,0.14777561591836275,34.72070399151744,None,1,001,2020_Jul_05_2120,sonority,2020.1.3,59.96221288930029,
autoConditions/train1Block2.xlsx,autoConditions/train1Block2Test.xlsx,,,trainaudio/06_titoka.wav,pngimages/06_tent.png,trainaudio/02_kitipi.wav,pngimages/02_pallet.png,0.5,-0.5,0,1,1,1,,,,,0,2,2,1,,,,,,,34.90419057853288,None,34.896194025088334,None,34.896194025088334,None,None,,36.87229392688096,41.87655039323181,1,001,2020_Jul_05_2120,sonority,2020.1.3,59.96221288930029,
autoConditions/train1Block2.xlsx,autoConditions/train1Block2Test.xlsx,,,,,,,,,0,1,1,1,,,,,,,,,,,,,,,,,,,,,,,,,1,001,2020_Jul_05_2120,sonority,2020.1.3,59.96221288930029,
autoConditions/train1Block3.xlsx,autoConditions/train1Block3Test.xlsx,trainaudio/05_titopo.wav,pngimages/05_megaphone.png,,,,,,,0,2,2,2,0,0,0,0,,,,,,,41.926548637481034,42.42636441589639,41.928665580997404,None,,,,,,,,,,,1,001,2020_Jul_05_2120,sonority,2020.1.3,59.96221288930029,
autoConditions/train1Block3.xlsx,autoConditions/train1Block3Test.xlsx,trainaudio/08_tipako.wav,pngimages/08_bell.png,,,,,,,0,2,2,2,0,1,1,1,,,,,,,42.45971815116937,None,42.45217922543816,42.45217922543816,,,,,,,,,,,1,001,2020_Jul_05_2120,sonority,2020.1.3,59.96221288930029,
autoConditions/train1Block3.xlsx,autoConditions/train1Block3Test.xlsx,trainaudio/20_tatito.wav,pngimages/20_pizza.png,,,,,,,0,2,2,2,0,2,2,2,,,,,,,42.976705314560974,42.97767063717947,42.97767063717947,42.97767063717947,,,,,,,,,,,1,001,2020_Jul_05_2120,sonority,2020.1.3,59.96221288930029,
autoConditions/train1Block3.xlsx,autoConditions/train1Block3Test.xlsx,trainaudio/19_papipi.wav,pngimages/19_burger.png,,,,,,,0,2,2,2,0,3,3,3,,,,,,,43.49374496165947,43.4899512581178,43.4899512581178,43.4899512581178,,,,,,,,,,,1,001,2020_Jul_05_2120,sonority,2020.1.3,59.96221288930029,
autoConditions/train1Block3.xlsx,autoConditions/train1Block3Test.xlsx,trainaudio/14_pokoto.wav,pngimages/14_coffee.png,,,,,,,0,2,2,2,0,4,4,4,,,,,,,44.011024372452454,44.00246899968806,44.00246899968806,44.00246899968806,,,,,,,,,,,1,001,2020_Jul_05_2120,sonority,2020.1.3,59.96221288930029,
autoConditions/train1Block3.xlsx,autoConditions/train1Block3Test.xlsx,trainaudio/13_kopopi.wav,pngimages/13_toast.png,,,,,,,0,2,2,2,0,5,5,5,,,,,,,44.5279609400408,44.52355668863311,44.52355668863311,44.52355668863311,,,,,,,,,,,1,001,2020_Jul_05_2120,sonority,2020.1.3,59.96221288930029,
autoConditions/train1Block3.xlsx,autoConditions/train1Block3Test.xlsx,,,trainaudio/20_tatito.wav,pngimages/20_pizza.png,trainaudio/13_kopopi.wav,pngimages/13_toast.png,-0.5,0.5,0,2,2,2,,,,,0,0,0,1,,,,,,,45.06182471121756,None,45.055396363370164,None,45.055396363370164,None,j,1.208694095885221,47.0477597952904,None,1,001,2020_Jul_05_2120,sonority,2020.1.3,59.96221288930029,
autoConditions/train1Block3.xlsx,autoConditions/train1Block3Test.xlsx,,,trainaudio/05_titopo.wav,pngimages/05_megaphone.png,trainaudio/19_papipi.wav,pngimages/19_burger.png,0.5,-0.5,0,2,2,2,,,,,0,1,1,0,,,,,,,48.29876081815783,None,48.29663941918989,None,48.29663941918989,None,f,0.1579140331978124,50.28351509435197,None,1,001,2020_Jul_05_2120,sonority,2020.1.3,59.96221288930029,
autoConditions/train1Block3.xlsx,autoConditions/train1Block3Test.xlsx,,,trainaudio/14_pokoto.wav,pngimages/14_coffee.png,trainaudio/08_tipako.wav,pngimages/08_bell.png,-0.5,0.5,0,2,2,2,,,,,0,2,2,2,,,,,,,50.467340106878694,None,50.47491335468658,None,50.47491335468658,None,j,0.04663536019870662,52.468822224092946,None,1,001,2020_Jul_05_2120,sonority,2020.1.3,59.96221288930029,
autoConditions/train1Block3.xlsx,autoConditions/train1Block3Test.xlsx,,,,,,,,,0,2,2,2,,,,,,,,,,,,,,,,,,,,,,,,,1,001,2020_Jul_05_2120,sonority,2020.1.3,59.96221288930029,
autoConditions/train1Block4.xlsx,autoConditions/train1Block4Test.xlsx,trainaudio/12_pokika.wav,pngimages/12_pie.png,,,,,,,0,3,3,3,0,0,0,0,,,,,,,52.58561123317559,None,52.57708553824705,None,,,,,,,,,,,1,001,2020_Jul_05_2120,sonority,2020.1.3,59.96221288930029,
autoConditions/train1Block4.xlsx,autoConditions/train1Block4Test.xlsx,trainaudio/25_tapapi.wav,pngimages/25_apple.png,,,,,,,0,3,3,3,0,1,1,1,,,,,,,53.1018785768687,53.09577898846874,53.09577898846874,53.09577898846874,,,,,,,,,,,1,001,2020_Jul_05_2120,sonority,2020.1.3,59.96221288930029,
autoConditions/train1Block4.xlsx,autoConditions/train1Block4Test.xlsx,trainaudio/17_kotako.wav,pngimages/17_cracker.png,,,,,,,0,3,3,3,0,2,2,2,,,,,,,53.619098707504605,53.6121548488336,53.6121548488336,53.6121548488336,,,,,,,,,,,1,001,2020_Jul_05_2120,sonority,2020.1.3,59.96221288930029,
autoConditions/train1Block4.xlsx,autoConditions/train1Block4Test.xlsx,trainaudio/03_kikita.wav,pngimages/03_box.png,,,,,,,0,3,3,3,0,3,3,3,,,,,,,54.13603829573768,54.132170963974204,54.132170963974204,54.132170963974204,,,,,,,,,,,1,001,2020_Jul_05_2120,sonority,2020.1.3,59.96221288930029,
autoConditions/train1Block4.xlsx,autoConditions/train1Block4Test.xlsx,trainaudio/11_tokiko.wav,pngimages/11_compass.png,,,,,,,0,3,3,3,0,4,4,4,,,,,,,54.65316818460306,54.650723954206114,54.650723954206114,54.650723954206114,,,,,,,,,,,1,001,2020_Jul_05_2120,sonority,2020.1.3,59.96221288930029,
autoConditions/train1Block4.xlsx,autoConditions/train1Block4Test.xlsx,trainaudio/07_pitapi.wav,pngimages/07_suitcase.png,,,,,,,0,3,3,3,0,5,5,5,,,,,,,55.170489506845485,55.670919231351945,55.17223830925468,55.17223830925468,,,,,,,,,,,1,001,2020_Jul_05_2120,sonority,2020.1.3,59.96221288930029,
autoConditions/train1Block4.xlsx,autoConditions/train1Block4Test.xlsx,,,trainaudio/17_kotako.wav,pngimages/17_cracker.png,trainaudio/07_pitapi.wav,pngimages/07_suitcase.png,0.5,-0.5,0,3,3,3,,,,,0,0,0,1,,,,,,,55.72094983426141,None,55.7232832447462,None,55.7232832447462,None,j,-0.395855146480244,57.72312805911133,None,1,001,2020_Jul_05_2120,sonority,2020.1.3,59.96221288930029,
autoConditions/train1Block4.xlsx,autoConditions/train1Block4Test.xlsx,,,trainaudio/12_pokika.wav,pngimages/12_pie.png,trainaudio/03_kikita.wav,pngimages/03_box.png,0.5,-0.5,0,3,3,3,,,,,0,1,1,0,,,,,,,57.7731586620208,None,57.77925353066166,None,57.77925353066166,None,f,-0.08320140037176316,59.77521379558857,None,1,001,2020_Jul_05_2120,sonority,2020.1.3,59.96221288930029,
autoConditions/train1Block4.xlsx,autoConditions/train1Block4Test.xlsx,,,trainaudio/11_tokiko.wav,pngimages/11_compass.png,trainaudio/25_tapapi.wav,pngimages/25_apple.png,-0.5,0.5,0,3,3,3,,,,,0,2,2,2,,,,,,,59.80856753086155,None,59.80233239101835,None,59.80233239101835,None,j,0.19721224675231497,61.793254220125164,None,1,001,2020_Jul_05_2120,sonority,2020.1.3,59.96221288930029,
autoConditions/train1Block4.xlsx,autoConditions/train1Block4Test.xlsx,,,,,,,,,0,3,3,3,,,,,,,,,,,,,,,,,,,,,,,,,1,001,2020_Jul_05_2120,sonority,2020.1.3,59.96221288930029,
autoConditions/train1Block5.xlsx,autoConditions/train1Block5Test.xlsx,trainaudio/21_papika.wav,pngimages/21_cheese.png,,,,,,,0,4,4,4,0,0,0,0,,,,,,,62.06038677093493,None,62.05200380148199,None,,,,,,,,,,,1,001,2020_Jul_05_2120,sonority,2020.1.3,59.96221288930029,
autoConditions/train1Block5.xlsx,autoConditions/train1Block5Test.xlsx,trainaudio/26_kapako.wav,pngimages/26_pineapple.png,,,,,,,0,4,4,4,0,1,1,1,,,,,,,62.57627238062051,62.57602000573206,62.57602000573206,62.57602000573206,,,,,,,,,,,1,001,2020_Jul_05_2120,sonority,2020.1.3,59.96221288930029,
autoConditions/train1Block5.xlsx,autoConditions/train1Block5Test.xlsx,trainaudio/09_tipata.wav,pngimages/09_plane.png,,,,,,,0,4,4,4,0,2,2,2,,,,,,,63.11005497196275,63.10111911120475,63.10111911120475,63.10111911120475,,,,,,,,,,,1,001,2020_Jul_05_2120,sonority,2020.1.3,59.96221288930029,
autoConditions/train1Block5.xlsx,autoConditions/train1Block5Test.xlsx,trainaudio/09_tipata.wav,pngimages/09_plane.png,,,,,,,0,4,4,4,0,3,3,3,,,,,,,63.627104927011175,63.62150563293653,63.62150563293653,63.62150563293653,,,,,,,,,,,1,001,2020_Jul_05_2120,sonority,2020.1.3,59.96221288930029,
autoConditions/train1Block5.xlsx,autoConditions/train1Block5Test.xlsx,trainaudio/18_popata.wav,pngimages/18_donut.png,,,,,,,0,4,4,4,0,4,4,4,,,,,,,64.12762402485096,64.12792242681644,64.12792242681644,64.12792242681644,,,,,,,,,,,1,001,2020_Jul_05_2120,sonority,2020.1.3,59.96221288930029,
autoConditions/train1Block5.xlsx,autoConditions/train1Block5Test.xlsx,trainaudio/03_kikita.wav,pngimages/03_box.png,,,,,,,0,4,4,4,0,5,5,5,,,,,,,64.62814640764118,64.62895869683416,64.62895869683416,64.62895869683416,,,,,,,,,,,1,001,2020_Jul_05_2120,sonority,2020.1.3,59.96221288930029,
