condFiles,testFiles,audio,imageLoc,audioTrue,imageTrue,audioFalse,imageFalse,train1blocks.thisRepN,train1blocks.thisTrialN,train1blocks.thisN,train1blocks.thisIndex,blockwords1.thisRepN,blockwords1.thisTrialN,blockwords1.thisN,blockwords1.thisIndex,blocktest1.thisRepN,blocktest1.thisTrialN,blocktest1.thisN,blocktest1.thisIndex,instructions.started,instructions.stopped,text.started,text.stopped,stimulitrain1.started,stimulitrain1.stopped,imagetrain1.started,imagetrain1.stopped,stimulitest1.started,stimulitest1.stopped,correct.started,correct.stopped,incorrect.started,incorrect.stopped,train1TestAnswer.keys,train1TestAnswer.rt,train1TestAnswer.started,train1TestAnswer.stopped,participant,session,date,expName,psychopyVersion,frameRate,
autoConditions/train1Block1.xlsx,autoConditions/train1Block1Test.xlsx,wavaudio/pakito1.wav,pngimages/17_cracker.png,,,,,0,0,0,0,0,0,0,0,,,,,10.052029952814337,None,17.565574550419115,None,19.532115104899276,None,19.55095309083117,None,,,,,,,,,,,1,001,2020_Jul_03_1633,sonority,2020.1.3,60.19350570440206,
autoConditions/train1Block1.xlsx,autoConditions/train1Block1Test.xlsx,wavaudio/pakito1.wav,pngimages/26_pineapple.png,,,,,0,0,0,0,0,1,1,1,,,,,,,21.514819312258624,None,23.531144343316555,None,23.525332309363876,None,,,,,,,,,,,1,001,2020_Jul_03_1633,sonority,2020.1.3,60.19350570440206,
autoConditions/train1Block1.xlsx,autoConditions/train1Block1Test.xlsx,wavaudio/pakito1.wav,pngimages/100_bicycle.png,,,,,0,0,0,0,0,2,2,2,,,,,,,25.513699783594348,None,27.5633413833566,None,27.56222162814811,None,,,,,,,,,,,1,001,2020_Jul_03_1633,sonority,2020.1.3,60.19350570440206,
autoConditions/train1Block1.xlsx,autoConditions/train1Block1Test.xlsx,wavaudio/pakito1.wav,pngimages/21_cheese.png,,,,,0,0,0,0,0,3,3,3,,,,,,,29.5127014585305,None,31.545515051140683,None,31.545782492030412,None,,,,,,,,,,,1,001,2020_Jul_03_1633,sonority,2020.1.3,60.19350570440206,
autoConditions/train1Block1.xlsx,autoConditions/train1Block1Test.xlsx,wavaudio/pakito1.wav,pngimages/01_gift.png,,,,,0,0,0,0,0,4,4,4,,,,,,,33.51155851985095,None,35.51097058792948,None,35.51505530055147,None,,,,,,,,,,,1,001,2020_Jul_03_1633,sonority,2020.1.3,60.19350570440206,
autoConditions/train1Block1.xlsx,autoConditions/train1Block1Test.xlsx,wavaudio/pakito1.wav,pngimages/23_lemon.png,,,,,0,0,0,0,0,5,5,5,,,,,,,37.510327604657505,None,39.509840109414654,None,39.5101467432105,None,,,,,,,,,,,1,001,2020_Jul_03_1633,sonority,2020.1.3,60.19350570440206,
autoConditions/train1Block1.xlsx,autoConditions/train1Block1Test.xlsx,,,wavaudio/pakito1.wav,pngimages/100_bicycle.png,wavaudio/pakito1.wav,pngimages/23_lemon.png,0,0,0,0,,,,,0,0,0,2,,,,,,,,,41.542896902159555,43.54273314517923,41.541286631079856,None,41.541286631079856,None,j,3.0533563959761523,41.541286631079856,None,1,001,2020_Jul_03_1633,sonority,2020.1.3,60.19350570440206,
autoConditions/train1Block1.xlsx,autoConditions/train1Block1Test.xlsx,,,wavaudio/pakito1.wav,pngimages/17_cracker.png,wavaudio/pakito1.wav,pngimages/21_cheese.png,0,0,0,0,,,,,0,1,1,0,,,,,,,,,44.65940944015165,46.65877861500485,44.66547955095302,None,44.66547955095302,None,j,2.7357459270278923,44.66547955095302,None,1,001,2020_Jul_03_1633,sonority,2020.1.3,60.19350570440206,
autoConditions/train1Block1.xlsx,autoConditions/train1Block1Test.xlsx,,,wavaudio/pakito1.wav,pngimages/26_pineapple.png,wavaudio/pakito1.wav,pngimages/01_gift.png,0,0,0,0,,,,,0,2,2,1,,,,,,,,,47.47533699136693,None,47.47592805715976,None,47.47592805715976,None,f,1.8708788885269314,47.47592805715976,None,1,001,2020_Jul_03_1633,sonority,2020.1.3,60.19350570440206,
autoConditions/train1Block1.xlsx,autoConditions/train1Block1Test.xlsx,,,,,,,0,0,0,0,,,,,,,,,,,,,,,,,,,,,,,,,,,1,001,2020_Jul_03_1633,sonority,2020.1.3,60.19350570440206,
autoConditions/train1Block2.xlsx,autoConditions/train1Block2Test.xlsx,wavaudio/pakito1.wav,pngimages/25_apple.png,,,,,0,1,1,1,0,0,0,0,,,,,,,49.39277936110739,None,51.40657350225956,53.40630772273289,51.40780370001448,None,,,,,,,,,,,1,001,2020_Jul_03_1633,sonority,2020.1.3,60.19350570440206,
autoConditions/train1Block2.xlsx,autoConditions/train1Block2Test.xlsx,wavaudio/pakito1.wav,pngimages/08_bell.png,,,,,0,1,1,1,0,1,1,1,,,,,,,53.42269248719094,None,55.422248413815396,57.42183235689299,55.423398564278614,None,,,,,,,,,,,1,001,2020_Jul_03_1633,sonority,2020.1.3,60.19350570440206,
autoConditions/train1Block2.xlsx,autoConditions/train1Block2Test.xlsx,wavaudio/pakito1.wav,pngimages/11_compass.png,,,,,0,1,1,1,0,2,2,2,,,,,,,57.4383798589115,None,59.43776927216095,None,59.438406667206436,None,,,,,,,,,,,1,001,2020_Jul_03_1633,sonority,2020.1.3,60.19350570440206,
autoConditions/train1Block2.xlsx,autoConditions/train1Block2Test.xlsx,wavaudio/pakito1.wav,pngimages/03_box.png,,,,,0,1,1,1,0,3,3,3,,,,,,,61.43743175221607,None,63.436623312794836,65.4365006366279,63.43834436626639,None,,,,,,,,,,,1,001,2020_Jul_03_1633,sonority,2020.1.3,60.19350570440206,
autoConditions/train1Block2.xlsx,autoConditions/train1Block2Test.xlsx,wavaudio/pakito1.wav,pngimages/18_donut.png,,,,,0,1,1,1,0,4,4,4,,,,,,,65.4528019555728,None,67.45228689690703,69.45203659823164,67.45349595008884,None,,,,,,,,,,,1,001,2020_Jul_03_1633,sonority,2020.1.3,60.19350570440206,
autoConditions/train1Block2.xlsx,autoConditions/train1Block2Test.xlsx,wavaudio/pakito1.wav,pngimages/19_burger.png,,,,,0,1,1,1,0,5,5,5,,,,,,,69.46846516209189,None,71.48452248802641,None,71.47476133087184,None,,,,,,,,,,,1,001,2020_Jul_03_1633,sonority,2020.1.3,60.19350570440206,
autoConditions/train1Block2.xlsx,autoConditions/train1Block2Test.xlsx,,,wavaudio/pakito1.wav,pngimages/08_bell.png,wavaudio/pakito1.wav,pngimages/18_donut.png,0,1,1,1,,,,,0,0,0,1,,,,,,,,,73.50096162414411,75.50108290329808,73.5006747378502,None,73.5006747378502,None,j,6.50779441150371,73.5006747378502,None,1,001,2020_Jul_03_1633,sonority,2020.1.3,60.19350570440206,
autoConditions/train1Block2.xlsx,autoConditions/train1Block2Test.xlsx,,,wavaudio/pakito1.wav,pngimages/25_apple.png,wavaudio/pakito1.wav,pngimages/03_box.png,0,1,1,1,,,,,0,1,1,0,,,,,,,,,80.04980592319043,None,80.04385342897149,None,80.04385342897149,None,j,0.6690352344303392,80.04385342897149,None,1,001,2020_Jul_03_1633,sonority,2020.1.3,60.19350570440206,
autoConditions/train1Block2.xlsx,autoConditions/train1Block2Test.xlsx,,,wavaudio/pakito1.wav,pngimages/11_compass.png,wavaudio/pakito1.wav,pngimages/19_burger.png,0,1,1,1,,,,,0,2,2,2,,,,,,,,,80.74972240219358,None,80.74793349736137,None,80.74793349736137,None,f,0.5520529852365144,80.74793349736137,None,1,001,2020_Jul_03_1633,sonority,2020.1.3,60.19350570440206,
autoConditions/train1Block2.xlsx,autoConditions/train1Block2Test.xlsx,,,,,,,0,1,1,1,,,,,,,,,,,,,,,,,,,,,,,,,,,1,001,2020_Jul_03_1633,sonority,2020.1.3,60.19350570440206,
autoConditions/train1Block3.xlsx,autoConditions/train1Block3Test.xlsx,wavaudio/pakito1.wav,pngimages/15_barrel.png,,,,,0,2,2,2,0,0,0,0,,,,,,,81.32436086807866,None,83.36461772155599,85.36433049541665,83.36925377848092,None,,,,,,,,,,,1,001,2020_Jul_03_1633,sonority,2020.1.3,60.19350570440206,
autoConditions/train1Block3.xlsx,autoConditions/train1Block3Test.xlsx,wavaudio/pakito1.wav,pngimages/05_megaphone.png,,,,,0,2,2,2,0,1,1,1,,,,,,,85.38063710054848,None,87.38010165243759,89.37982416793238,87.38178079441423,None,,,,,,,,,,,1,001,2020_Jul_03_1633,sonority,2020.1.3,60.19350570440206,
autoConditions/train1Block3.xlsx,autoConditions/train1Block3Test.xlsx,wavaudio/pakito1.wav,pngimages/04_ladder.png,,,,,0,2,2,2,0,2,2,2,,,,,,,89.39633353421232,None,91.39571652855375,93.39537410007324,91.39675189432455,None,,,,,,,,,,,1,001,2020_Jul_03_1633,sonority,2020.1.3,60.19350570440206,
autoConditions/train1Block3.xlsx,autoConditions/train1Block3Test.xlsx,wavaudio/pakito1.wav,pngimages/14_coffee.png,,,,,0,2,2,2,0,3,3,3,,,,,,,93.41167692933232,None,95.4112377644924,None,95.41158291156171,None,,,,,,,,,,,1,001,2020_Jul_03_1633,sonority,2020.1.3,60.19350570440206,
autoConditions/train1Block3.xlsx,autoConditions/train1Block3Test.xlsx,wavaudio/pakito1.wav,pngimages/02_pallet.png,,,,,0,2,2,2,0,4,4,4,,,,,,,97.41070125915576,None,99.4104248318763,None,99.41052945965203,None,,,,,,,,,,,1,001,2020_Jul_03_1633,sonority,2020.1.3,60.19350570440206,
autoConditions/train1Block3.xlsx,autoConditions/train1Block3Test.xlsx,wavaudio/pakito1.wav,pngimages/22_egg.png,,,,,0,2,2,2,0,5,5,5,,,,,,,101.40946656820597,None,103.4761328950699,None,103.46443183824886,None,,,,,,,,,,,1,001,2020_Jul_03_1633,sonority,2020.1.3,60.19350570440206,
autoConditions/train1Block3.xlsx,autoConditions/train1Block3Test.xlsx,,,wavaudio/pakito1.wav,pngimages/15_barrel.png,wavaudio/pakito1.wav,pngimages/14_coffee.png,0,2,2,2,,,,,0,0,0,0,,,,,,,,,105.54251509191818,107.542176212708,105.54374732862925,None,105.54374732862925,None,j,2.300319886940997,105.54374732862925,None,1,001,2020_Jul_03_1633,sonority,2020.1.3,60.19350570440206,
autoConditions/train1Block3.xlsx,autoConditions/train1Block3Test.xlsx,,,wavaudio/pakito1.wav,pngimages/04_ladder.png,wavaudio/pakito1.wav,pngimages/22_egg.png,0,2,2,2,,,,,0,1,1,2,,,,,,,,,107.9421872003295,None,107.94169464544393,None,107.94169464544393,None,j,1.1858734739944339,107.94169464544393,None,1,001,2020_Jul_03_1633,sonority,2020.1.3,60.19350570440206,
autoConditions/train1Block3.xlsx,autoConditions/train1Block3Test.xlsx,,,wavaudio/pakito1.wav,pngimages/05_megaphone.png,wavaudio/pakito1.wav,pngimages/02_pallet.png,0,2,2,2,,,,,0,2,2,1,,,,,,,,,109.19176325199078,None,109.18382056429982,None,109.18382056429982,None,f,0.5285662934184074,109.18382056429982,None,1,001,2020_Jul_03_1633,sonority,2020.1.3,60.19350570440206,
autoConditions/train1Block3.xlsx,autoConditions/train1Block3Test.xlsx,,,,,,,0,2,2,2,,,,,,,,,,,,,,,,,,,,,,,,,,,1,001,2020_Jul_03_1633,sonority,2020.1.3,60.19350570440206,
,,,,,,,,,,,,,,,,,,,,,,109.75328306970187,None,,,,,,,,,,,,,,,,,,,,,
