condFiles,testFiles,audio,imageLoc,audioTrue,imageTrue,audioFalse,imageFalse,truePos,falsePos,train1blocks.thisRepN,train1blocks.thisTrialN,train1blocks.thisN,train1blocks.thisIndex,blockwords1.thisRepN,blockwords1.thisTrialN,blockwords1.thisN,blockwords1.thisIndex,blocktest1.thisRepN,blocktest1.thisTrialN,blocktest1.thisN,blocktest1.thisIndex,train2blocks.thisRepN,train2blocks.thisTrialN,train2blocks.thisN,train2blocks.thisIndex,blockloop2.thisRepN,blockloop2.thisTrialN,blockloop2.thisN,blockloop2.thisIndex,blocktest2.thisRepN,blocktest2.thisTrialN,blocktest2.thisN,blocktest2.thisIndex,test1Loop.thisRepN,test1Loop.thisTrialN,test1Loop.thisN,test1Loop.thisIndex,firstAudio,secondAudio,whichAudio,instructions.started,instructions.stopped,stimulitrain1.started,stimulitrain1.stopped,imagetrain1.started,imagetrain1.stopped,stimulitest1.started,stimulitest1.stopped,correct.started,correct.stopped,incorrect.started,incorrect.stopped,train1TestAnswer.keys,train1TestAnswer.rt,train1TestAnswer.started,train1TestAnswer.stopped,notice.started,notice.stopped,key_resp_3.keys,key_resp_3.rt,key_resp_3.started,key_resp_3.stopped,stimulitrain2.started,stimulitrain2.stopped,imagetrain2.started,imagetrain2.stopped,stimulitest2.started,stimulitest2.stopped,key_resp.keys,key_resp.rt,key_resp.started,key_resp.stopped,correct2.started,correct2.stopped,incorrect2.started,incorrect2.stopped,test1Instr.started,test1Instr.stopped,skipTest1Instr.keys,skipTest1Instr.rt,skipTest1Instr.started,skipTest1Instr.stopped,oneWarningTest1.started,oneWarningTest1.stopped,twoWarningTest1.started,twoWarningTest1.stopped,participant,session,date,expName,psychopyVersion,frameRate,
autoConditions/train1Block1.xlsx,autoConditions/train1Block1Test.xlsx,trainingaudio/18_popata2.wav,pngimages/18_donut.png,,,,,,,0,0,0,0,0,0,0,0,,,,,,,,,,,,,,,,,,,,,,,,13.265927766566165,None,16.658395712828497,None,16.690698792226613,None,,,,,,,,,,,,,,,,,,,,,,,,,,,,,,,,,,,,,,,,,1,001,2020_Jul_10_0014,sonority,2020.1.3,60.013573322230414,
autoConditions/train1Block1.xlsx,autoConditions/train1Block1Test.xlsx,trainingaudio/27_pakapa1.wav,pngimages/27_kiwi.png,,,,,,,0,0,0,0,0,1,1,1,,,,,,,,,,,,,,,,,,,,,,,,,,17.56592259373283,None,17.56852314248681,None,,,,,,,,,,,,,,,,,,,,,,,,,,,,,,,,,,,,,,,,,1,001,2020_Jul_10_0014,sonority,2020.1.3,60.013573322230414,
autoConditions/train1Block1.xlsx,autoConditions/train1Block1Test.xlsx,trainingaudio/10_tokiti1.wav,pngimages/10_backpack.png,,,,,,,0,0,0,0,0,2,2,2,,,,,,,,,,,,,,,,,,,,,,,,,,18.5843566837837,None,18.578883954731282,None,,,,,,,,,,,,,,,,,,,,,,,,,,,,,,,,,,,,,,,,,1,001,2020_Jul_10_0014,sonority,2020.1.3,60.013573322230414,
autoConditions/train1Block1.xlsx,autoConditions/train1Block1Test.xlsx,trainingaudio/22_kakoki1.wav,pngimages/22_egg.png,,,,,,,0,0,0,0,0,3,3,3,,,,,,,,,,,,,,,,,,,,,,,,,,19.635704778780926,None,19.635841991577763,None,,,,,,,,,,,,,,,,,,,,,,,,,,,,,,,,,,,,,,,,,1,001,2020_Jul_10_0014,sonority,2020.1.3,60.013573322230414,
autoConditions/train1Block1.xlsx,autoConditions/train1Block1Test.xlsx,trainingaudio/01_kitipi1.wav,pngimages/01_gift.png,,,,,,,0,0,0,0,0,4,4,4,,,,,,,,,,,,,,,,,,,,,,,,,,20.5688918122265,None,20.57261271821335,None,,,,,,,,,,,,,,,,,,,,,,,,,,,,,,,,,,,,,,,,,1,001,2020_Jul_10_0014,sonority,2020.1.3,60.013573322230414,
autoConditions/train1Block1.xlsx,autoConditions/train1Block1Test.xlsx,trainingaudio/24_takopa1.wav,pngimages/24_banana.png,,,,,,,0,0,0,0,0,5,5,5,,,,,,,,,,,,,,,,,,,,,,,,,,21.60324583403417,None,21.607837969553657,None,,,,,,,,,,,,,,,,,,,,,,,,,,,,,,,,,,,,,,,,,1,001,2020_Jul_10_0014,sonority,2020.1.3,60.013573322230414,
autoConditions/train1Block1.xlsx,autoConditions/train1Block1Test.xlsx,,,trainingaudio/24_takopa1.wav,pngimages/24_banana.png,trainingaudio/27_pakapa1.wav,pngimages/27_kiwi.png,0.5,-0.5,0,0,0,0,,,,,0,0,0,0,,,,,,,,,,,,,,,,,,,,,,,,,,22.60396285969182,23.605422208784148,22.596811482682824,None,22.596811482682824,None,f,2.1003960443194956,23.58893024234567,None,,,,,,,,,,,,,,,,,,,,,,,,,,,,,,,1,001,2020_Jul_10_0014,sonority,2020.1.3,60.013573322230414,
autoConditions/train1Block1.xlsx,autoConditions/train1Block1Test.xlsx,,,trainingaudio/18_popata2.wav,pngimages/18_donut.png,trainingaudio/22_kakoki1.wav,pngimages/22_egg.png,0.5,-0.5,0,0,0,0,,,,,0,1,1,1,,,,,,,,,,,,,,,,,,,,,,,,,,25.740533921628955,26.74122058978537,25.736955816624686,None,25.736955816624686,None,j,1.0195643399492837,26.72472258209018,None,,,,,,,,,,,,,,,,,,,,,,,,,,,,,,,1,001,2020_Jul_10_0014,sonority,2020.1.3,60.013573322230414,
autoConditions/train1Block1.xlsx,autoConditions/train1Block1Test.xlsx,,,trainingaudio/10_tokiti1.wav,pngimages/10_backpack.png,trainingaudio/01_kitipi1.wav,pngimages/01_gift.png,-0.5,0.5,0,0,0,0,,,,,0,2,2,2,,,,,,,,,,,,,,,,,,,,,,,,,,27.79220401737839,28.793176816077903,27.7907889962662,None,27.7907889962662,None,f,0.335634813120123,28.77664558129618,None,,,,,,,,,,,,,,,,,,,,,,,,,,,,,,,1,001,2020_Jul_10_0014,sonority,2020.1.3,60.013573322230414,
autoConditions/train1Block1.xlsx,autoConditions/train1Block1Test.xlsx,,,,,,,,,0,0,0,0,,,,,,,,,,,,,,,,,,,,,,,,,,,,,,,,,,,,,,,,,,,,,,,,,,,,,,,,,,,,,,,,,,,,,,,,,,1,001,2020_Jul_10_0014,sonority,2020.1.3,60.013573322230414,
autoConditions/train1Block2.xlsx,autoConditions/train1Block2Test.xlsx,trainingaudio/17_kotako2.wav,pngimages/17_cracker.png,,,,,,,0,1,1,1,0,0,0,0,,,,,,,,,,,,,,,,,,,,,,,,,,29.160249218321404,None,29.15772033436224,None,,,,,,,,,,,,,,,,,,,,,,,,,,,,,,,,,,,,,,,,,1,001,2020_Jul_10_0014,sonority,2020.1.3,60.013573322230414,
autoConditions/train1Block2.xlsx,autoConditions/train1Block2Test.xlsx,trainingaudio/02_pitito3.wav,pngimages/02_pallet.png,,,,,,,0,1,1,1,0,1,1,1,,,,,,,,,,,,,,,,,,,,,,,,,,30.17681858872529,30.1673758259858,30.1673758259858,30.1673758259858,,,,,,,,,,,,,,,,,,,,,,,,,,,,,,,,,,,,,,,,,1,001,2020_Jul_10_0014,sonority,2020.1.3,60.013573322230414,
autoConditions/train1Block2.xlsx,autoConditions/train1Block2Test.xlsx,trainingaudio/23_patoko1.wav,pngimages/23_lemon.png,,,,,,,0,1,1,1,0,2,2,2,,,,,,,,,,,,,,,,,,,,,,,,,,31.194204666046424,31.18904857611051,31.18904857611051,31.18904857611051,,,,,,,,,,,,,,,,,,,,,,,,,,,,,,,,,,,,,,,,,1,001,2020_Jul_10_0014,sonority,2020.1.3,60.013573322230414,
autoConditions/train1Block2.xlsx,autoConditions/train1Block2Test.xlsx,trainingaudio/11_tokiko1.wav,pngimages/11_compass.png,,,,,,,0,1,1,1,0,3,3,3,,,,,,,,,,,,,,,,,,,,,,,,,,32.21180181098171,32.204297924705315,32.204297924705315,32.204297924705315,,,,,,,,,,,,,,,,,,,,,,,,,,,,,,,,,,,,,,,,,1,001,2020_Jul_10_0014,sonority,2020.1.3,60.013573322230414,
autoConditions/train1Block2.xlsx,autoConditions/train1Block2Test.xlsx,trainingaudio/03_kikita3.wav,pngimages/03_box.png,,,,,,,0,1,1,1,0,4,4,4,,,,,,,,,,,,,,,,,,,,,,,,,,33.21312794958358,34.213542608660646,33.217584231635556,33.217584231635556,,,,,,,,,,,,,,,,,,,,,,,,,,,,,,,,,,,,,,,,,1,001,2020_Jul_10_0014,sonority,2020.1.3,60.013573322230414,
autoConditions/train1Block2.xlsx,autoConditions/train1Block2Test.xlsx,trainingaudio/06_titoka3.wav,pngimages/06_tent.png,,,,,,,0,1,1,1,0,5,5,5,,,,,,,,,,,,,,,,,,,,,,,,,,34.246959097834775,None,34.23840478225611,34.23840478225611,,,,,,,,,,,,,,,,,,,,,,,,,,,,,,,,,,,,,,,,,1,001,2020_Jul_10_0014,sonority,2020.1.3,60.013573322230414,
autoConditions/train1Block2.xlsx,autoConditions/train1Block2Test.xlsx,,,trainingaudio/02_pitito3.wav,pngimages/02_pallet.png,trainingaudio/06_titoka3.wav,pngimages/06_tent.png,0.5,-0.5,0,1,1,1,,,,,0,0,0,0,,,,,,,,,,,,,,,,,,,,,,,,,,35.26434517515591,None,35.263714766537305,None,35.263714766537305,None,f,-5.73877915344201,36.24918961757794,None,,,,,,,,,,,,,,,,,,,,,,,,,,,,,,,1,001,2020_Jul_10_0014,sonority,2020.1.3,60.013573322230414,
autoConditions/train1Block2.xlsx,autoConditions/train1Block2Test.xlsx,,,trainingaudio/11_tokiko1.wav,pngimages/11_compass.png,trainingaudio/03_kikita3.wav,pngimages/03_box.png,-0.5,0.5,0,1,1,1,,,,,0,1,1,1,,,,,,,,,,,,,,,,,,,,,,,,,,36.28260610675207,37.283583814045414,36.27723026491003,None,36.27723026491003,None,j,1.2831371361389756,37.26695667376043,None,,,,,,,,,,,,,,,,,,,,,,,,,,,,,,,1,001,2020_Jul_10_0014,sonority,2020.1.3,60.013573322230414,
autoConditions/train1Block2.xlsx,autoConditions/train1Block2Test.xlsx,,,trainingaudio/23_patoko1.wav,pngimages/23_lemon.png,trainingaudio/17_kotako2.wav,pngimages/17_cracker.png,-0.5,0.5,0,1,1,1,,,,,0,2,2,2,,,,,,,,,,,,,,,,,,,,,,,,,,38.58474196706666,39.58528092561755,38.58118342072703,None,38.58118342072703,None,j,0.6158381477580406,39.56855787988752,None,,,,,,,,,,,,,,,,,,,,,,,,,,,,,,,1,001,2020_Jul_10_0014,sonority,2020.1.3,60.013573322230414,
autoConditions/train1Block2.xlsx,autoConditions/train1Block2Test.xlsx,,,,,,,,,0,1,1,1,,,,,,,,,,,,,,,,,,,,,,,,,,,,,,,,,,,,,,,,,,,,,,,,,,,,,,,,,,,,,,,,,,,,,,,,,,1,001,2020_Jul_10_0014,sonority,2020.1.3,60.013573322230414,
autoConditions/train1Block3.xlsx,autoConditions/train1Block3Test.xlsx,trainingaudio/08_tipako2.wav,pngimages/08_bell.png,,,,,,,0,2,2,2,0,0,0,0,,,,,,,,,,,,,,,,,,,,,,,,,,40.23593253542786,None,40.2322249202407,None,,,,,,,,,,,,,,,,,,,,,,,,,,,,,,,,,,,,,,,,,1,001,2020_Jul_10_0014,sonority,2020.1.3,60.013573322230414,
autoConditions/train1Block3.xlsx,autoConditions/train1Block3Test.xlsx,trainingaudio/25_tapapi1.wav,pngimages/25_apple.png,,,,,,,0,2,2,2,0,1,1,1,,,,,,,,,,,,,,,,,,,,,,,,,,41.25258165089181,41.24506908026524,41.24506908026524,41.24506908026524,,,,,,,,,,,,,,,,,,,,,,,,,,,,,,,,,,,,,,,,,1,001,2020_Jul_10_0014,sonority,2020.1.3,60.013573322230414,
autoConditions/train1Block3.xlsx,autoConditions/train1Block3Test.xlsx,trainingaudio/19_papipi1.wav,pngimages/19_burger.png,,,,,,,0,2,2,2,0,2,2,2,,,,,,,,,,,,,,,,,,,,,,,,,,42.2702203296125,42.265802032197826,42.265802032197826,42.265802032197826,,,,,,,,,,,,,,,,,,,,,,,,,,,,,,,,,,,,,,,,,1,001,2020_Jul_10_0014,sonority,2020.1.3,60.013573322230414,
autoConditions/train1Block3.xlsx,autoConditions/train1Block3Test.xlsx,trainingaudio/21_papika1.wav,pngimages/21_cheese.png,,,,,,,0,2,2,2,0,3,3,3,,,,,,,,,,,,,,,,,,,,,,,,,,43.304499288433,43.293805676628835,43.293805676628835,43.293805676628835,,,,,,,,,,,,,,,,,,,,,,,,,,,,,,,,,,,,,,,,,1,001,2020_Jul_10_0014,sonority,2020.1.3,60.013573322230414,
autoConditions/train1Block3.xlsx,autoConditions/train1Block3Test.xlsx,trainingaudio/12_pokika3.wav,pngimages/12_pie.png,,,,,,,0,2,2,2,0,4,4,4,,,,,,,,,,,,,,,,,,,,,,,,,,44.35523396591889,44.34938365628477,44.34938365628477,44.34938365628477,,,,,,,,,,,,,,,,,,,,,,,,,,,,,,,,,,,,,,,,,1,001,2020_Jul_10_0014,sonority,2020.1.3,60.013573322230414,
autoConditions/train1Block3.xlsx,autoConditions/train1Block3Test.xlsx,trainingaudio/15_kopota3.wav,pngimages/15_barrel.png,,,,,,,0,2,2,2,0,5,5,5,,,,,,,,,,,,,,,,,,,,,,,,,,45.42284914033371,45.41375511104707,45.41375511104707,45.41375511104707,,,,,,,,,,,,,,,,,,,,,,,,,,,,,,,,,,,,,,,,,1,001,2020_Jul_10_0014,sonority,2020.1.3,60.013573322230414,
autoConditions/train1Block3.xlsx,autoConditions/train1Block3Test.xlsx,,,trainingaudio/12_pokika3.wav,pngimages/12_pie.png,trainingaudio/08_tipako2.wav,pngimages/08_bell.png,0.5,-0.5,0,2,2,2,,,,,0,0,0,0,,,,,,,,,,,,,,,,,,,,,,,,,,46.457094721024625,47.458987759193406,46.45964550465578,None,46.45964550465578,None,j,0.815441990213003,47.458987759193406,None,,,,,,,,,,,,,,,,,,,,,,,,,,,,,,,1,001,2020_Jul_10_0014,sonority,2020.1.3,60.013573322230414,
autoConditions/train1Block3.xlsx,autoConditions/train1Block3Test.xlsx,,,trainingaudio/25_tapapi1.wav,pngimages/25_apple.png,trainingaudio/15_kopota3.wav,pngimages/15_barrel.png,0.5,-0.5,0,2,2,2,,,,,0,1,1,1,,,,,,,,,,,,,,,,,,,,,,,,,,48.342685829161205,49.34351718612015,48.344953880412504,None,48.344953880412504,None,j,0.3987912134034559,49.34351718612015,None,,,,,,,,,,,,,,,,,,,,,,,,,,,,,,,1,001,2020_Jul_10_0014,sonority,2020.1.3,60.013573322230414,
autoConditions/train1Block3.xlsx,autoConditions/train1Block3Test.xlsx,,,trainingaudio/21_papika1.wav,pngimages/21_cheese.png,trainingaudio/19_papipi1.wav,pngimages/19_burger.png,-0.5,0.5,0,2,2,2,,,,,0,2,2,2,,,,,,,,,,,,,,,,,,,,,,,,,,49.79407334350399,50.79482457792619,49.78563162253704,None,49.78563162253704,None,j,0.30248965334612876,50.77792180381948,None,,,,,,,,,,,,,,,,,,,,,,,,,,,,,,,1,001,2020_Jul_10_0014,sonority,2020.1.3,60.013573322230414,
autoConditions/train1Block3.xlsx,autoConditions/train1Block3Test.xlsx,,,,,,,,,0,2,2,2,,,,,,,,,,,,,,,,,,,,,,,,,,,,,,,,,,,,,,,,,,,,,,,,,,,,,,,,,,,,,,,,,,,,,,,,,,1,001,2020_Jul_10_0014,sonority,2020.1.3,60.013573322230414,
autoConditions/train1Block4.xlsx,autoConditions/train1Block4Test.xlsx,trainingaudio/13_kopopi1.wav,pngimages/13_toast.png,,,,,,,0,3,3,3,0,0,0,0,,,,,,,,,,,,,,,,,,,,,,,,,,51.128505260252865,52.12835853244178,51.13179904705612,None,,,,,,,,,,,,,,,,,,,,,,,,,,,,,,,,,,,,,,,,,1,001,2020_Jul_10_0014,sonority,2020.1.3,60.013573322230414,
autoConditions/train1Block4.xlsx,autoConditions/train1Block4Test.xlsx,trainingaudio/14_pokoto1.wav,pngimages/14_coffee.png,,,,,,,0,3,3,3,0,1,1,1,,,,,,,,,,,,,,,,,,,,,,,,,,52.16177502161591,None,52.15702822903404,52.15702822903404,,,,,,,,,,,,,,,,,,,,,,,,,,,,,,,,,,,,,,,,,1,001,2020_Jul_10_0014,sonority,2020.1.3,60.013573322230414,
autoConditions/train1Block4.xlsx,autoConditions/train1Block4Test.xlsx,trainingaudio/07_pitapi2.wav,pngimages/07_suitcase.png,,,,,,,0,3,3,3,0,2,2,2,,,,,,,,,,,,,,,,,,,,,,,,,,53.16234486627509,54.16326661611674,53.164486956666224,53.164486956666224,,,,,,,,,,,,,,,,,,,,,,,,,,,,,,,,,,,,,,,,,1,001,2020_Jul_10_0014,sonority,2020.1.3,60.013573322230414,
autoConditions/train1Block4.xlsx,autoConditions/train1Block4Test.xlsx,trainingaudio/20_tatito1.wav,pngimages/20_pizza.png,,,,,,,0,3,3,3,0,3,3,3,,,,,,,,,,,,,,,,,,,,,,,,,,54.19668310529087,55.19753130240133,54.20205811643973,54.20205811643973,,,,,,,,,,,,,,,,,,,,,,,,,,,,,,,,,,,,,,,,,1,001,2020_Jul_10_0014,sonority,2020.1.3,60.013573322230414,
autoConditions/train1Block4.xlsx,autoConditions/train1Block4Test.xlsx,trainingaudio/04_kitoti2.wav,pngimages/04_ladder.png,,,,,,,0,3,3,3,0,4,4,4,,,,,,,,,,,,,,,,,,,,,,,,,,55.23094779157546,None,55.22444826975698,55.22444826975698,,,,,,,,,,,,,,,,,,,,,,,,,,,,,,,,,,,,,,,,,1,001,2020_Jul_10_0014,sonority,2020.1.3,60.013573322230414,
autoConditions/train1Block4.xlsx,autoConditions/train1Block4Test.xlsx,trainingaudio/09_tipata2.wav,pngimages/09_plane.png,,,,,,,0,3,3,3,0,5,5,5,,,,,,,,,,,,,,,,,,,,,,,,,,56.26499718136038,56.25372926943237,56.25372926943237,56.25372926943237,,,,,,,,,,,,,,,,,,,,,,,,,,,,,,,,,,,,,,,,,1,001,2020_Jul_10_0014,sonority,2020.1.3,60.013573322230414,
autoConditions/train1Block4.xlsx,autoConditions/train1Block4Test.xlsx,,,trainingaudio/14_pokoto1.wav,pngimages/14_coffee.png,trainingaudio/20_tatito1.wav,pngimages/20_pizza.png,-0.5,0.5,0,3,3,3,,,,,0,0,0,0,,,,,,,,,,,,,,,,,,,,,,,,,,57.29929131891695,58.3013867403497,57.291372547100764,None,57.291372547100764,None,j,0.17081671819323674,58.26800219446886,None,,,,,,,,,,,,,,,,,,,,,,,,,,,,,,,1,001,2020_Jul_10_0014,sonority,2020.1.3,60.013573322230414,
autoConditions/train1Block4.xlsx,autoConditions/train1Block4Test.xlsx,,,trainingaudio/13_kopopi1.wav,pngimages/13_toast.png,trainingaudio/04_kitoti2.wav,pngimages/04_ladder.png,0.5,-0.5,0,3,3,3,,,,,0,1,1,1,,,,,,,,,,,,,,,,,,,,,,,,,,58.51843299508328,59.51898343214998,58.51563429203816,None,58.51563429203816,None,j,0.18391914333915338,59.50231060461374,None,,,,,,,,,,,,,,,,,,,,,,,,,,,,,,,1,001,2020_Jul_10_0014,sonority,2020.1.3,60.013573322230414,
autoConditions/train1Block4.xlsx,autoConditions/train1Block4Test.xlsx,,,trainingaudio/07_pitapi2.wav,pngimages/07_suitcase.png,trainingaudio/09_tipata2.wav,pngimages/09_plane.png,-0.5,0.5,0,3,3,3,,,,,0,2,2,2,,,,,,,,,,,,,,,,,,,,,,,,,,59.752316627022815,60.75274321762845,59.75439475523308,None,59.75439475523308,None,j,0.18366616434650496,60.75274321762845,None,,,,,,,,,,,,,,,,,,,,,,,,,,,,,,,1,001,2020_Jul_10_0014,sonority,2020.1.3,60.013573322230414,
autoConditions/train1Block4.xlsx,autoConditions/train1Block4Test.xlsx,,,,,,,,,0,3,3,3,,,,,,,,,,,,,,,,,,,,,,,,,,,,,,,,,,,,,,,,,,,,,,,,,,,,,,,,,,,,,,,,,,,,,,,,,,1,001,2020_Jul_10_0014,sonority,2020.1.3,60.013573322230414,
autoConditions/train1Block5.xlsx,autoConditions/train1Block5Test.xlsx,trainingaudio/16_kotapi2.wav,pngimages/16_icecream.png,,,,,,,0,4,4,4,0,0,0,0,,,,,,,,,,,,,,,,,,,,,,,,,,60.96985003629234,None,60.97049245197559,None,,,,,,,,,,,,,,,,,,,,,,,,,,,,,,,,,,,,,,,,,1,001,2020_Jul_10_0014,sonority,2020.1.3,60.013573322230414,
autoConditions/train1Block5.xlsx,autoConditions/train1Block5Test.xlsx,trainingaudio/26_kapako1.wav,pngimages/26_pineapple.png,,,,,,,0,4,4,4,0,1,1,1,,,,,,,,,,,,,,,,,,,,,,,,,,61.986533436086034,62.98732650640886,61.99107776989695,61.99107776989695,,,,,,,,,,,,,,,,,,,,,,,,,,,,,,,,,,,,,,,,,1,001,2020_Jul_10_0014,sonority,2020.1.3,60.013573322230414,
autoConditions/train1Block5.xlsx,autoConditions/train1Block5Test.xlsx,trainingaudio/05_titopo2.wav,pngimages/05_megaphone.png,,,,,,,0,4,4,4,0,2,2,2,,,,,,,,,,,,,,,,,,,,,,,,,,63.02074299558299,None,63.02055171324173,63.02055171324173,,,,,,,,,,,,,,,,,,,,,,,,,,,,,,,,,,,,,,,,,1,001,2020_Jul_10_0014,sonority,2020.1.3,60.013573322230414,
autoConditions/train1Block5.xlsx,autoConditions/train1Block5Test.xlsx,trainingaudio/17_kotako2.wav,pngimages/17_cracker.png,,,,,,,0,4,4,4,0,3,3,3,,,,,,,,,,,,,,,,,,,,,,,,,,64.02156846232829,64.02160667348653,64.02160667348653,64.02160667348653,,,,,,,,,,,,,,,,,,,,,,,,,,,,,,,,,,,,,,,,,1,001,2020_Jul_10_0014,sonority,2020.1.3,60.013573322230414,
autoConditions/train1Block5.xlsx,autoConditions/train1Block5Test.xlsx,trainingaudio/15_kopota3.wav,pngimages/15_barrel.png,,,,,,,0,4,4,4,0,4,4,4,,,,,,,,,,,,,,,,,,,,,,,,,,65.05560946987826,65.05390945088584,65.05390945088584,65.05390945088584,,,,,,,,,,,,,,,,,,,,,,,,,,,,,,,,,,,,,,,,,1,001,2020_Jul_10_0014,sonority,2020.1.3,60.013573322230414,
autoConditions/train1Block5.xlsx,autoConditions/train1Block5Test.xlsx,trainingaudio/24_takopa1.wav,pngimages/24_banana.png,,,,,,,0,4,4,4,0,5,5,5,,,,,,,,,,,,,,,,,,,,,,,,,,66.09031403756818,67.090728092473,66.09494604560314,66.09494604560314,,,,,,,,,,,,,,,,,,,,,,,,,,,,,,,,,,,,,,,,,1,001,2020_Jul_10_0014,sonority,2020.1.3,60.013573322230414,
autoConditions/train1Block5.xlsx,autoConditions/train1Block5Test.xlsx,,,trainingaudio/05_titopo2.wav,pngimages/05_megaphone.png,trainingaudio/24_takopa1.wav,pngimages/24_banana.png,0.5,-0.5,0,4,4,4,,,,,0,0,0,0,,,,,,,,,,,,,,,,,,,,,,,,,,67.1408528262342,68.1425019473536,67.14551202009898,None,67.14551202009898,None,j,-6.018392329686321,68.1425019473536,None,,,,,,,,,,,,,,,,,,,,,,,,,,,,,,,1,001,2020_Jul_10_0014,sonority,2020.1.3,60.013573322230414,
autoConditions/train1Block5.xlsx,autoConditions/train1Block5Test.xlsx,,,trainingaudio/16_kotapi2.wav,pngimages/16_icecream.png,trainingaudio/26_kapako1.wav,pngimages/26_pineapple.png,-0.5,0.5,0,4,4,4,,,,,0,1,1,1,,,,,,,,,,,,,,,,,,,,,,,,,,68.19262668111479,69.19350251712603,68.18364388711052,None,68.18364388711052,None,j,0.749479033111129,69.15967204858316,None,,,,,,,,,,,,,,,,,,,,,,,,,,,,,,,1,001,2020_Jul_10_0014,sonority,2020.1.3,60.013573322230414,
autoConditions/train1Block5.xlsx,autoConditions/train1Block5Test.xlsx,,,trainingaudio/15_kopota3.wav,pngimages/15_barrel.png,trainingaudio/17_kotako2.wav,pngimages/17_cracker.png,0.5,-0.5,0,4,4,4,,,,,0,2,2,2,,,,,,,,,,,,,,,,,,,,,,,,,,69.96075555390563,70.96180885285139,69.96398484997917,None,69.96398484997917,None,j,0.7197743880096823,70.96180885285139,None,,,,,,,,,,,,,,,,,,,,,,,,,,,,,,,1,001,2020_Jul_10_0014,sonority,2020.1.3,60.013573322230414,
autoConditions/train1Block5.xlsx,autoConditions/train1Block5Test.xlsx,,,,,,,,,0,4,4,4,,,,,,,,,,,,,,,,,,,,,,,,,,,,,,,,,,,,,,,,,,,,,,,,,,,,,,,,,,,,,,,,,,,,,,,,,,1,001,2020_Jul_10_0014,sonority,2020.1.3,60.013573322230414,
autoConditions/train1Block6.xlsx,autoConditions/train1Block6Test.xlsx,trainingaudio/09_tipata2.wav,pngimages/09_plane.png,,,,,,,0,5,5,5,0,0,0,0,,,,,,,,,,,,,,,,,,,,,,,,,,71.77924220325076,None,71.7748475424014,None,,,,,,,,,,,,,,,,,,,,,,,,,,,,,,,,,,,,,,,,,1,001,2020_Jul_10_0014,sonority,2020.1.3,60.013573322230414,
autoConditions/train1Block6.xlsx,autoConditions/train1Block6Test.xlsx,trainingaudio/19_papipi1.wav,pngimages/19_burger.png,,,,,,,0,5,5,5,0,1,1,1,,,,,,,,,,,,,,,,,,,,,,,,,,72.77853982775123,72.77884612116031,72.77884612116031,72.77884612116031,,,,,,,,,,,,,,,,,,,,,,,,,,,,,,,,,,,,,,,,,1,001,2020_Jul_10_0014,sonority,2020.1.3,60.013573322230414,
autoConditions/train1Block6.xlsx,autoConditions/train1Block6Test.xlsx,trainingaudio/10_tokiti1.wav,pngimages/10_backpack.png,,,,,,,0,5,5,5,0,2,2,2,,,,,,,,,,,,,,,,,,,,,,,,,,73.8134647515195,73.80814411194297,73.80814411194297,73.80814411194297,,,,,,,,,,,,,,,,,,,,,,,,,,,,,,,,,,,,,,,,,1,001,2020_Jul_10_0014,sonority,2020.1.3,60.013573322230414,
autoConditions/train1Block6.xlsx,autoConditions/train1Block6Test.xlsx,trainingaudio/25_tapapi1.wav,pngimages/25_apple.png,,,,,,,0,5,5,5,0,3,3,3,,,,,,,,,,,,,,,,,,,,,,,,,,74.84769507799648,74.8434671566938,74.8434671566938,74.8434671566938,,,,,,,,,,,,,,,,,,,,,,,,,,,,,,,,,,,,,,,,,1,001,2020_Jul_10_0014,sonority,2020.1.3,60.013573322230414,
autoConditions/train1Block6.xlsx,autoConditions/train1Block6Test.xlsx,trainingaudio/11_tokiko1.wav,pngimages/11_compass.png,,,,,,,0,5,5,5,0,4,4,4,,,,,,,,,,,,,,,,,,,,,,,,,,75.86493812772679,75.86532567651011,75.86532567651011,75.86532567651011,,,,,,,,,,,,,,,,,,,,,,,,,,,,,,,,,,,,,,,,,1,001,2020_Jul_10_0014,sonority,2020.1.3,60.013573322230414,
autoConditions/train1Block6.xlsx,autoConditions/train1Block6Test.xlsx,trainingaudio/06_titoka3.wav,pngimages/06_tent.png,,,,,,,0,5,5,5,0,5,5,5,,,,,,,,,,,,,,,,,,,,,,,,,,76.88236989229918,76.87495889089769,76.87495889089769,76.87495889089769,,,,,,,,,,,,,,,,,,,,,,,,,,,,,,,,,,,,,,,,,1,001,2020_Jul_10_0014,sonority,2020.1.3,60.013573322230414,
autoConditions/train1Block6.xlsx,autoConditions/train1Block6Test.xlsx,,,trainingaudio/06_titoka3.wav,pngimages/06_tent.png,trainingaudio/19_papipi1.wav,pngimages/19_burger.png,-0.5,0.5,0,5,5,5,,,,,0,0,0,0,,,,,,,,,,,,,,,,,,,,,,,,,,77.89991191044683,78.90130004781531,77.90241995197721,None,77.90241995197721,None,j,0.9095622670138255,78.90130004781531,None,,,,,,,,,,,,,,,,,,,,,,,,,,,,,,,1,001,2020_Jul_10_0014,sonority,2020.1.3,60.013573322230414,
autoConditions/train1Block6.xlsx,autoConditions/train1Block6Test.xlsx,,,trainingaudio/25_tapapi1.wav,pngimages/25_apple.png,trainingaudio/10_tokiti1.wav,pngimages/10_backpack.png,-0.5,0.5,0,5,5,5,,,,,0,1,1,1,,,,,,,,,,,,,,,,,,,,,,,,,,79.85252818544396,80.85342358011985,79.85663641366409,None,79.85663641366409,None,j,0.1616003527888097,80.85342358011985,None,,,,,,,,,,,,,,,,,,,,,,,,,,,,,,,1,001,2020_Jul_10_0014,sonority,2020.1.3,60.013573322230414,
autoConditions/train1Block6.xlsx,autoConditions/train1Block6Test.xlsx,,,trainingaudio/09_tipata2.wav,pngimages/09_plane.png,trainingaudio/11_tokiko1.wav,pngimages/11_compass.png,0.5,-0.5,0,5,5,5,,,,,0,2,2,2,,,,,,,,,,,,,,,,,,,,,,,,,,81.08670013794908,82.0873419494601,81.08062818844337,None,81.08062818844337,None,j,0.18285247817402706,82.07060266775079,None,,,,,,,,,,,,,,,,,,,,,,,,,,,,,,,1,001,2020_Jul_10_0014,sonority,2020.1.3,60.013573322230414,
autoConditions/train1Block6.xlsx,autoConditions/train1Block6Test.xlsx,,,,,,,,,0,5,5,5,,,,,,,,,,,,,,,,,,,,,,,,,,,,,,,,,,,,,,,,,,,,,,,,,,,,,,,,,,,,,,,,,,,,,,,,,,1,001,2020_Jul_10_0014,sonority,2020.1.3,60.013573322230414,
autoConditions/train1Block7.xlsx,autoConditions/train1Block7Test.xlsx,trainingaudio/18_popata2.wav,pngimages/18_donut.png,,,,,,,0,6,6,6,0,0,0,0,,,,,,,,,,,,,,,,,,,,,,,,,,82.3043365512218,None,82.297936031071,None,,,,,,,,,,,,,,,,,,,,,,,,,,,,,,,,,,,,,,,,,1,001,2020_Jul_10_0014,sonority,2020.1.3,60.013573322230414,
autoConditions/train1Block7.xlsx,autoConditions/train1Block7Test.xlsx,trainingaudio/22_kakoki1.wav,pngimages/22_egg.png,,,,,,,0,6,6,6,0,1,1,1,,,,,,,,,,,,,,,,,,,,,,,,,,83.3376871147717,83.32863597868709,83.32863597868709,83.32863597868709,,,,,,,,,,,,,,,,,,,,,,,,,,,,,,,,,,,,,,,,,1,001,2020_Jul_10_0014,sonority,2020.1.3,60.013573322230414,
autoConditions/train1Block7.xlsx,autoConditions/train1Block7Test.xlsx,trainingaudio/14_pokoto1.wav,pngimages/14_coffee.png,,,,,,,0,6,6,6,0,2,2,2,,,,,,,,,,,,,,,,,,,,,,,,,,84.33831480484805,84.33851462049643,84.33851462049643,84.33851462049643,,,,,,,,,,,,,,,,,,,,,,,,,,,,,,,,,,,,,,,,,1,001,2020_Jul_10_0014,sonority,2020.1.3,60.013573322230414,
autoConditions/train1Block7.xlsx,autoConditions/train1Block7Test.xlsx,trainingaudio/13_kopopi1.wav,pngimages/13_toast.png,,,,,,,0,6,6,6,0,3,3,3,,,,,,,,,,,,,,,,,,,,,,,,,,85.33922930511763,85.33951218851143,85.33951218851143,85.33951218851143,,,,,,,,,,,,,,,,,,,,,,,,,,,,,,,,,,,,,,,,,1,001,2020_Jul_10_0014,sonority,2020.1.3,60.013573322230414,
autoConditions/train1Block7.xlsx,autoConditions/train1Block7Test.xlsx,trainingaudio/08_tipako2.wav,pngimages/08_bell.png,,,,,,,0,6,6,6,0,4,4,4,,,,,,,,,,,,,,,,,,,,,,,,,,86.34016683775117,86.34033795731375,86.34033795731375,86.34033795731375,,,,,,,,,,,,,,,,,,,,,,,,,,,,,,,,,,,,,,,,,1,001,2020_Jul_10_0014,sonority,2020.1.3,60.013573322230414,
autoConditions/train1Block7.xlsx,autoConditions/train1Block7Test.xlsx,trainingaudio/23_patoko1.wav,pngimages/23_lemon.png,,,,,,,0,6,6,6,0,5,5,5,,,,,,,,,,,,,,,,,,,,,,,,,,87.34091671290226,87.34176105866209,87.34176105866209,87.34176105866209,,,,,,,,,,,,,,,,,,,,,,,,,,,,,,,,,,,,,,,,,1,001,2020_Jul_10_0014,sonority,2020.1.3,60.013573322230414,
autoConditions/train1Block7.xlsx,autoConditions/train1Block7Test.xlsx,,,trainingaudio/23_patoko1.wav,pngimages/23_lemon.png,trainingaudio/13_kopopi1.wav,pngimages/13_toast.png,0.5,-0.5,0,6,6,6,,,,,0,0,0,0,,,,,,,,,,,,,,,,,,,,,,,,,,88.35854889723706,89.35987435624702,88.35924304148648,None,88.35924304148648,None,j,0.17119127820478752,89.35987435624702,None,,,,,,,,,,,,,,,,,,,,,,,,,,,,,,,1,001,2020_Jul_10_0014,sonority,2020.1.3,60.013573322230414,
autoConditions/train1Block7.xlsx,autoConditions/train1Block7Test.xlsx,,,trainingaudio/08_tipako2.wav,pngimages/08_bell.png,trainingaudio/22_kakoki1.wav,pngimages/22_egg.png,0.5,-0.5,0,6,6,6,,,,,0,1,1,1,,,,,,,,,,,,,,,,,,,,,,,,,,89.59336960873917,None,89.58828911045566,None,89.58828911045566,None,j,-0.20935070858104154,90.57750465272693,None,,,,,,,,,,,,,,,,,,,,,,,,,,,,,,,1,001,2020_Jul_10_0014,sonority,2020.1.3,60.013573322230414,
autoConditions/train1Block7.xlsx,autoConditions/train1Block7Test.xlsx,,,trainingaudio/18_popata2.wav,pngimages/18_donut.png,trainingaudio/14_pokoto1.wav,pngimages/14_coffee.png,-0.5,0.5,0,6,6,6,,,,,0,2,2,2,,,,,,,,,,,,,,,,,,,,,,,,,,90.61092114190106,90.60299663082696,90.60299663082696,None,90.60299663082696,None,j,-0.08329239732120186,91.57858679880155,None,,,,,,,,,,,,,,,,,,,,,,,,,,,,,,,1,001,2020_Jul_10_0014,sonority,2020.1.3,60.013573322230414,
autoConditions/train1Block7.xlsx,autoConditions/train1Block7Test.xlsx,,,,,,,,,0,6,6,6,,,,,,,,,,,,,,,,,,,,,,,,,,,,,,,,,,,,,,,,,,,,,,,,,,,,,,,,,,,,,,,,,,,,,,,,,,1,001,2020_Jul_10_0014,sonority,2020.1.3,60.013573322230414,
autoConditions/train1Block8.xlsx,autoConditions/train1Block8Test.xlsx,trainingaudio/05_titopo2.wav,pngimages/05_megaphone.png,,,,,,,0,7,7,7,0,0,0,0,,,,,,,,,,,,,,,,,,,,,,,,,,91.61200328797568,None,91.60736750415526,None,,,,,,,,,,,,,,,,,,,,,,,,,,,,,,,,,,,,,,,,,1,001,2020_Jul_10_0014,sonority,2020.1.3,60.013573322230414,
autoConditions/train1Block8.xlsx,autoConditions/train1Block8Test.xlsx,trainingaudio/21_papika1.wav,pngimages/21_cheese.png,,,,,,,0,7,7,7,0,1,1,1,,,,,,,,,,,,,,,,,,,,,,,,,,92.6289842212922,92.62436731648631,92.62436731648631,92.62436731648631,,,,,,,,,,,,,,,,,,,,,,,,,,,,,,,,,,,,,,,,,1,001,2020_Jul_10_0014,sonority,2020.1.3,60.013573322230414,
autoConditions/train1Block8.xlsx,autoConditions/train1Block8Test.xlsx,trainingaudio/12_pokika3.wav,pngimages/12_pie.png,,,,,,,0,7,7,7,0,2,2,2,,,,,,,,,,,,,,,,,,,,,,,,,,93.67937031633919,93.66973589366535,93.66973589366535,93.66973589366535,,,,,,,,,,,,,,,,,,,,,,,,,,,,,,,,,,,,,,,,,1,001,2020_Jul_10_0014,sonority,2020.1.3,60.013573322230414,
autoConditions/train1Block8.xlsx,autoConditions/train1Block8Test.xlsx,trainingaudio/01_kitipi1.wav,pngimages/01_gift.png,,,,,,,0,7,7,7,0,3,3,3,,,,,,,,,,,,,,,,,,,,,,,,,,94.68034507848206,94.68048712430755,94.68048712430755,94.68048712430755,,,,,,,,,,,,,,,,,,,,,,,,,,,,,,,,,,,,,,,,,1,001,2020_Jul_10_0014,sonority,2020.1.3,60.013573322230414,
autoConditions/train1Block8.xlsx,autoConditions/train1Block8Test.xlsx,trainingaudio/07_pitapi2.wav,pngimages/07_suitcase.png,,,,,,,0,7,7,7,0,4,4,4,,,,,,,,,,,,,,,,,,,,,,,,,,95.68114705973422,95.68127702298807,95.68127702298807,95.68127702298807,,,,,,,,,,,,,,,,,,,,,,,,,,,,,,,,,,,,,,,,,1,001,2020_Jul_10_0014,sonority,2020.1.3,60.013573322230414,
autoConditions/train1Block8.xlsx,autoConditions/train1Block8Test.xlsx,trainingaudio/02_pitito3.wav,pngimages/02_pallet.png,,,,,,,0,7,7,7,0,5,5,5,,,,,,,,,,,,,,,,,,,,,,,,,,96.68203588448814,96.68209712806856,96.68209712806856,96.68209712806856,,,,,,,,,,,,,,,,,,,,,,,,,,,,,,,,,,,,,,,,,1,001,2020_Jul_10_0014,sonority,2020.1.3,60.013573322230414,
autoConditions/train1Block8.xlsx,autoConditions/train1Block8Test.xlsx,,,trainingaudio/12_pokika3.wav,pngimages/12_pie.png,trainingaudio/02_pitito3.wav,pngimages/02_pallet.png,-0.5,0.5,0,7,7,7,,,,,0,0,0,0,,,,,,,,,,,,,,,,,,,,,,,,,,97.71645145199146,98.71776452637278,97.71915591094876,None,97.71915591094876,None,j,0.028817708254791796,98.71776452637278,None,,,,,,,,,,,,,,,,,,,,,,,,,,,,,,,1,001,2020_Jul_10_0014,sonority,2020.1.3,60.013573322230414,
autoConditions/train1Block8.xlsx,autoConditions/train1Block8Test.xlsx,,,trainingaudio/01_kitipi1.wav,pngimages/01_gift.png,trainingaudio/21_papika1.wav,pngimages/21_cheese.png,-0.5,0.5,0,7,7,7,,,,,0,1,1,1,,,,,,,,,,,,,,,,,,,,,,,,,,98.80125379422098,99.80205864505842,98.79389988299226,None,98.79389988299226,None,j,0.703562208916992,99.76861330872634,None,,,,,,,,,,,,,,,,,,,,,,,,,,,,,,,1,001,2020_Jul_10_0014,sonority,2020.1.3,60.013573322230414,
autoConditions/train1Block8.xlsx,autoConditions/train1Block8Test.xlsx,,,trainingaudio/07_pitapi2.wav,pngimages/07_suitcase.png,trainingaudio/05_titopo2.wav,pngimages/05_megaphone.png,-0.5,0.5,0,7,7,7,,,,,0,2,2,2,,,,,,,,,,,,,,,,,,,,,,,,,,100.51929327482358,None,100.51135026226984,None,100.51135026226984,None,j,-0.6670059858006425,101.50348827859852,None,,,,,,,,,,,,,,,,,,,,,,,,,,,,,,,1,001,2020_Jul_10_0014,sonority,2020.1.3,60.013573322230414,
autoConditions/train1Block8.xlsx,autoConditions/train1Block8Test.xlsx,,,,,,,,,0,7,7,7,,,,,,,,,,,,,,,,,,,,,,,,,,,,,,,,,,,,,,,,,,,,,,,,,,,,,,,,,,,,,,,,,,,,,,,,,,1,001,2020_Jul_10_0014,sonority,2020.1.3,60.013573322230414,
autoConditions/train1Block9.xlsx,autoConditions/train1Block9Test.xlsx,trainingaudio/04_kitoti2.wav,pngimages/04_ladder.png,,,,,,,0,8,8,8,0,0,0,0,,,,,,,,,,,,,,,,,,,,,,,,,,101.53690476777265,None,101.5321432495839,None,,,,,,,,,,,,,,,,,,,,,,,,,,,,,,,,,,,,,,,,,1,001,2020_Jul_10_0014,sonority,2020.1.3,60.013573322230414,
autoConditions/train1Block9.xlsx,autoConditions/train1Block9Test.xlsx,trainingaudio/27_pakapa1.wav,pngimages/27_kiwi.png,,,,,,,0,8,8,8,0,1,1,1,,,,,,,,,,,,,,,,,,,,,,,,,,102.53673833022476,102.5373334728065,102.5373334728065,102.5373334728065,,,,,,,,,,,,,,,,,,,,,,,,,,,,,,,,,,,,,,,,,1,001,2020_Jul_10_0014,sonority,2020.1.3,60.013573322230414,
autoConditions/train1Block9.xlsx,autoConditions/train1Block9Test.xlsx,trainingaudio/26_kapako1.wav,pngimages/26_pineapple.png,,,,,,,0,8,8,8,0,2,2,2,,,,,,,,,,,,,,,,,,,,,,,,,,103.55435503376648,103.54894520965172,103.54894520965172,103.54894520965172,,,,,,,,,,,,,,,,,,,,,,,,,,,,,,,,,,,,,,,,,1,001,2020_Jul_10_0014,sonority,2020.1.3,60.013573322230414,
autoConditions/train1Block9.xlsx,autoConditions/train1Block9Test.xlsx,trainingaudio/20_tatito1.wav,pngimages/20_pizza.png,,,,,,,0,8,8,8,0,3,3,3,,,,,,,,,,,,,,,,,,,,,,,,,,104.57178679833888,104.56319661263842,104.56319661263842,104.56319661263842,,,,,,,,,,,,,,,,,,,,,,,,,,,,,,,,,,,,,,,,,1,001,2020_Jul_10_0014,sonority,2020.1.3,60.013573322230414,
autoConditions/train1Block9.xlsx,autoConditions/train1Block9Test.xlsx,trainingaudio/16_kotapi2.wav,pngimages/16_icecream.png,,,,,,,0,8,8,8,0,4,4,4,,,,,,,,,,,,,,,,,,,,,,,,,,105.5727028844587,105.57279169140384,105.57279169140384,105.57279169140384,,,,,,,,,,,,,,,,,,,,,,,,,,,,,,,,,,,,,,,,,1,001,2020_Jul_10_0014,sonority,2020.1.3,60.013573322230414,
autoConditions/train1Block9.xlsx,autoConditions/train1Block9Test.xlsx,trainingaudio/03_kikita3.wav,pngimages/03_box.png,,,,,,,0,8,8,8,0,5,5,5,,,,,,,,,,,,,,,,,,,,,,,,,,106.57346333180904,106.57376811490394,106.57376811490394,106.57376811490394,,,,,,,,,,,,,,,,,,,,,,,,,,,,,,,,,,,,,,,,,1,001,2020_Jul_10_0014,sonority,2020.1.3,60.013573322230414,
autoConditions/train1Block9.xlsx,autoConditions/train1Block9Test.xlsx,,,trainingaudio/26_kapako1.wav,pngimages/26_pineapple.png,trainingaudio/16_kotapi2.wav,pngimages/16_icecream.png,-0.5,0.5,0,8,8,8,,,,,0,0,0,0,,,,,,,,,,,,,,,,,,,,,,,,,,107.60786606155453,108.60930298239691,107.60121029691072,None,107.60121029691072,None,j,0.01513418648391962,108.59266640263377,None,,,,,,,,,,,,,,,,,,,,,,,,,,,,,,,1,001,2020_Jul_10_0014,sonority,2020.1.3,60.013573322230414,
autoConditions/train1Block9.xlsx,autoConditions/train1Block9Test.xlsx,,,trainingaudio/27_pakapa1.wav,pngimages/27_kiwi.png,trainingaudio/20_tatito1.wav,pngimages/20_pizza.png,-0.5,0.5,0,8,8,8,,,,,0,1,1,1,,,,,,,,,,,,,,,,,,,,,,,,,,108.64271947157104,109.6435389725375,108.64838521985803,None,108.64838521985803,None,j,0.07969745219452307,109.6435389725375,None,,,,,,,,,,,,,,,,,,,,,,,,,,,,,,,1,001,2020_Jul_10_0014,sonority,2020.1.3,60.013573322230414,
autoConditions/train1Block9.xlsx,autoConditions/train1Block9Test.xlsx,,,trainingaudio/03_kikita3.wav,pngimages/03_box.png,trainingaudio/04_kitoti2.wav,pngimages/04_ladder.png,-0.5,0.5,0,8,8,8,,,,,0,2,2,2,,,,,,,,,,,,,,,,,,,,,,,,,,109.76043664935278,None,109.7578371577547,None,109.7578371577547,None,j,-0.2633183068828657,110.74446325213648,None,,,,,,,,,,,,,,,,,,,,,,,,,,,,,,,1,001,2020_Jul_10_0014,sonority,2020.1.3,60.013573322230414,
autoConditions/train1Block9.xlsx,autoConditions/train1Block9Test.xlsx,,,,,,,,,0,8,8,8,,,,,,,,,,,,,,,,,,,,,,,,,,,,,,,,,,,,,,,,,,,,,,,,,,,,,,,,,,,,,,,,,,,,,,,,,,1,001,2020_Jul_10_0014,sonority,2020.1.3,60.013573322230414,
,,,,,,,,,,,,,,,,,,,,,,,,,,,,,,,,,,,,,,,,,,,,,,,,,,,,,,,,,110.75975828798255,None,f,5.226188161293976,110.75975828798255,None,,,,,,,,,,,,,,,,,,,,,,,,,1,001,2020_Jul_10_0014,sonority,2020.1.3,60.013573322230414,
autoConditions/train2Block1.xlsx,autoConditions/train2Block1Test.xlsx,trainingaudio/07_pitapi2.wav,pngimages/07_suitcase.png,,,,,,,,,,,,,,,,,,,0,0,0,0,0,0,0,0,,,,,,,,,,,,,,,,,,,,,,,,,,,,,,,,,,116.03088292320027,None,116.03019663266605,None,,,,,,,,,,,,,,,,,,,,,1,001,2020_Jul_10_0014,sonority,2020.1.3,60.013573322230414,
autoConditions/train2Block1.xlsx,autoConditions/train2Block1Test.xlsx,trainingaudio/15_kopota3.wav,pngimages/15_barrel.png,,,,,,,,,,,,,,,,,,,0,0,0,0,0,1,1,1,,,,,,,,,,,,,,,,,,,,,,,,,,,,,,,,,,117.06559949798394,117.06167930492666,117.06167930492666,117.06167930492666,,,,,,,,,,,,,,,,,,,,,1,001,2020_Jul_10_0014,sonority,2020.1.3,60.013573322230414,
autoConditions/train2Block1.xlsx,autoConditions/train2Block1Test.xlsx,trainingaudio/21_papika1.wav,pngimages/21_cheese.png,,,,,,,,,,,,,,,,,,,0,0,0,0,0,2,2,2,,,,,,,,,,,,,,,,,,,,,,,,,,,,,,,,,,118.08313630548074,118.08363184228074,118.08363184228074,118.08363184228074,,,,,,,,,,,,,,,,,,,,,1,001,2020_Jul_10_0014,sonority,2020.1.3,60.013573322230414,
autoConditions/train2Block1.xlsx,autoConditions/train2Block1Test.xlsx,trainingaudio/18_popata2.wav,pngimages/18_donut.png,,,,,,,,,,,,,,,,,,,0,0,0,0,0,3,3,3,,,,,,,,,,,,,,,,,,,,,,,,,,,,,,,,,,119.08392590204603,119.08566888974747,119.08566888974747,119.08566888974747,,,,,,,,,,,,,,,,,,,,,1,001,2020_Jul_10_0014,sonority,2020.1.3,60.013573322230414,
autoConditions/train2Block1.xlsx,autoConditions/train2Block1Test.xlsx,trainingaudio/01_kitipi1.wav,pngimages/01_gift.png,,,,,,,,,,,,,,,,,,,0,0,0,0,0,4,4,4,,,,,,,,,,,,,,,,,,,,,,,,,,,,,,,,,,120.0848977946036,121.08564661245327,120.0868643099675,120.0868643099675,,,,,,,,,,,,,,,,,,,,,1,001,2020_Jul_10_0014,sonority,2020.1.3,60.013573322230414,
autoConditions/train2Block1.xlsx,autoConditions/train2Block1Test.xlsx,trainingaudio/06_titoka3.wav,pngimages/06_tent.png,,,,,,,,,,,,,,,,,,,0,0,0,0,0,5,5,5,,,,,,,,,,,,,,,,,,,,,,,,,,,,,,,,,,121.1190631016274,None,121.11391796154203,121.11391796154203,,,,,,,,,,,,,,,,,,,,,1,001,2020_Jul_10_0014,sonority,2020.1.3,60.013573322230414,
autoConditions/train2Block1.xlsx,autoConditions/train2Block1Test.xlsx,trainingaudio/19_papipi1.wav,pngimages/19_burger.png,,,,,,,,,,,,,,,,,,,0,0,0,0,0,6,6,6,,,,,,,,,,,,,,,,,,,,,,,,,,,,,,,,,,122.11984439149383,122.12072045402601,122.12072045402601,122.12072045402601,,,,,,,,,,,,,,,,,,,,,1,001,2020_Jul_10_0014,sonority,2020.1.3,60.013573322230414,
autoConditions/train2Block1.xlsx,autoConditions/train2Block1Test.xlsx,trainingaudio/04_kitoti2.wav,pngimages/04_ladder.png,,,,,,,,,,,,,,,,,,,0,0,0,0,0,7,7,7,,,,,,,,,,,,,,,,,,,,,,,,,,,,,,,,,,123.1207166027336,123.12065135675948,123.12065135675948,123.12065135675948,,,,,,,,,,,,,,,,,,,,,1,001,2020_Jul_10_0014,sonority,2020.1.3,60.013573322230414,
autoConditions/train2Block1.xlsx,autoConditions/train2Block1Test.xlsx,trainingaudio/20_tatito1.wav,pngimages/20_pizza.png,,,,,,,,,,,,,,,,,,,0,0,0,0,0,8,8,8,,,,,,,,,,,,,,,,,,,,,,,,,,,,,,,,,,124.13815017967718,124.13258781295735,124.13258781295735,124.13258781295735,,,,,,,,,,,,,,,,,,,,,1,001,2020_Jul_10_0014,sonority,2020.1.3,60.013573322230414,
autoConditions/train2Block1.xlsx,autoConditions/train2Block1Test.xlsx,,,trainingaudio/18_popata2.wav,pngimages/18_donut.png,trainingaudio/06_titoka3.wav,pngimages/06_tent.png,0.5,-0.5,,,,,,,,,,,,,0,0,0,0,,,,,0,0,0,0,,,,,,,,,,,,,,,,,,,,,,,,,,,,,,,,,,125.15551397976233,126.1572377862758,j,0.40160532179288566,126.14039957849309,None,125.15463361277943,None,125.15463361277943,None,,,,,,,,,,,1,001,2020_Jul_10_0014,sonority,2020.1.3,60.013573322230414,
autoConditions/train2Block1.xlsx,autoConditions/train2Block1Test.xlsx,,,trainingaudio/20_tatito1.wav,pngimages/20_pizza.png,trainingaudio/19_papipi1.wav,pngimages/19_burger.png,-0.5,0.5,,,,,,,,,,,,,0,0,0,0,,,,,0,1,1,1,,,,,,,,,,,,,,,,,,,,,,,,,,,,,,,,,,126.57442835238763,127.5753683015937,j,0.17648156028008088,127.5753683015937,None,126.58250872872304,None,126.58250872872304,None,,,,,,,,,,,1,001,2020_Jul_10_0014,sonority,2020.1.3,60.013573322230414,
autoConditions/train2Block1.xlsx,autoConditions/train2Block1Test.xlsx,,,trainingaudio/21_papika1.wav,pngimages/21_cheese.png,trainingaudio/01_kitipi1.wav,pngimages/01_gift.png,-0.5,0.5,,,,,,,,,,,,,0,0,0,0,,,,,0,2,2,2,,,,,,,,,,,,,,,,,,,,,,,,,,,,,,,,,,127.80893151857309,128.80933764431393,j,0.11049443809315562,128.7926059141755,None,127.80150095850695,None,127.80150095850695,None,,,,,,,,,,,1,001,2020_Jul_10_0014,sonority,2020.1.3,60.013573322230414,
autoConditions/train2Block1.xlsx,autoConditions/train2Block1Test.xlsx,,,trainingaudio/15_kopota3.wav,pngimages/15_barrel.png,trainingaudio/04_kitoti2.wav,pngimages/04_ladder.png,-0.5,0.5,,,,,,,,,,,,,0,0,0,0,,,,,0,3,3,3,,,,,,,,,,,,,,,,,,,,,,,,,,,,,,,,,,128.99297397976625,129.99380050378386,j,0.1426522244582884,129.97719903895631,None,128.98957877483917,None,128.98957877483917,None,,,,,,,,,,,1,001,2020_Jul_10_0014,sonority,2020.1.3,60.013573322230414,
autoConditions/train2Block1.xlsx,autoConditions/train2Block1Test.xlsx,,,trainingaudio/07_pitapi2.wav,pngimages/07_suitcase.png,trainingaudio/06_titoka3.wav,pngimages/06_tent.png,0.5,-0.5,,,,,,,,,,,,,0,0,0,0,,,,,0,4,4,4,,,,,,,,,,,,,,,,,,,,,,,,,,,,,,,,,,130.1775317630323,131.17798886215314,j,0.15290882450062782,131.16130508476635,None,130.1701359403669,None,130.1701359403669,None,,,,,,,,,,,1,001,2020_Jul_10_0014,sonority,2020.1.3,60.013573322230414,
autoConditions/train2Block1.xlsx,autoConditions/train2Block1Test.xlsx,,,trainingaudio/20_tatito1.wav,pngimages/20_pizza.png,trainingaudio/01_kitipi1.wav,pngimages/01_gift.png,-0.5,0.5,,,,,,,,,,,,,0,0,0,0,,,,,0,5,5,5,,,,,,,,,,,,,,,,,,,,,,,,,,,,,,,,,,131.3616099433624,132.36238715529907,j,0.14352783391950652,132.36238715529907,None,131.3650872343569,None,131.3650872343569,None,,,,,,,,,,,1,001,2020_Jul_10_0014,sonority,2020.1.3,60.013573322230414,
autoConditions/train2Block1.xlsx,autoConditions/train2Block1Test.xlsx,,,trainingaudio/07_pitapi2.wav,pngimages/07_suitcase.png,trainingaudio/21_papika1.wav,pngimages/21_cheese.png,0.5,-0.5,,,,,,,,,,,,,0,0,0,0,,,,,0,6,6,6,,,,,,,,,,,,,,,,,,,,,,,,,,,,,,,,,,132.5459542425,133.54664234543452,j,0.1254156690556556,133.54664234543452,None,132.55137418577215,None,132.55137418577215,None,,,,,,,,,,,1,001,2020_Jul_10_0014,sonority,2020.1.3,60.013573322230414,
autoConditions/train2Block1.xlsx,autoConditions/train2Block1Test.xlsx,,,trainingaudio/04_kitoti2.wav,pngimages/04_ladder.png,trainingaudio/18_popata2.wav,pngimages/18_donut.png,-0.5,0.5,,,,,,,,,,,,,0,0,0,0,,,,,0,7,7,7,,,,,,,,,,,,,,,,,,,,,,,,,,,,,,,,,,133.71333157885817,134.7143557285308,j,0.14436644047964364,134.6978509243927,None,133.71128826355562,None,133.71128826355562,None,,,,,,,,,,,1,001,2020_Jul_10_0014,sonority,2020.1.3,60.013573322230414,
autoConditions/train2Block1.xlsx,autoConditions/train2Block1Test.xlsx,,,trainingaudio/15_kopota3.wav,pngimages/15_barrel.png,trainingaudio/19_papipi1.wav,pngimages/19_burger.png,-0.5,0.5,,,,,,,,,,,,,0,0,0,0,,,,,0,8,8,8,,,,,,,,,,,,,,,,,,,,,,,,,,,,,,,,,,134.91474010557866,135.9154880173155,j,0.27416808606358245,135.89883859973634,None,134.90757166198455,None,134.90757166198455,None,,,,,,,,,,,1,001,2020_Jul_10_0014,sonority,2020.1.3,60.013573322230414,
autoConditions/train2Block1.xlsx,autoConditions/train2Block1Test.xlsx,,,,,,,,,,,,,,,,,,,,,0,0,0,0,,,,,,,,,,,,,,,,,,,,,,,,,,,,,,,,,,,,,,,,,,,,,,,,,,,,,,,,,,,,,,1,001,2020_Jul_10_0014,sonority,2020.1.3,60.013573322230414,
autoConditions/train2Block2.xlsx,autoConditions/train2Block2Test.xlsx,trainingaudio/25_tapapi1.wav,pngimages/25_apple.png,,,,,,,,,,,,,,,,,,,0,1,1,1,0,0,0,0,,,,,,,,,,,,,,,,,,,,,,,,,,,,,,,,,,136.21586193537803,None,136.21162449911935,None,,,,,,,,,,,,,,,,,,,,,1,001,2020_Jul_10_0014,sonority,2020.1.3,60.013573322230414,
autoConditions/train2Block2.xlsx,autoConditions/train2Block2Test.xlsx,trainingaudio/08_tipako2.wav,pngimages/08_bell.png,,,,,,,,,,,,,,,,,,,0,1,1,1,0,1,1,1,,,,,,,,,,,,,,,,,,,,,,,,,,,,,,,,,,137.2155135039531,137.21623211540282,137.21623211540282,137.21623211540282,,,,,,,,,,,,,,,,,,,,,1,001,2020_Jul_10_0014,sonority,2020.1.3,60.013573322230414,
autoConditions/train2Block2.xlsx,autoConditions/train2Block2Test.xlsx,trainingaudio/09_tipata2.wav,pngimages/09_plane.png,,,,,,,,,,,,,,,,,,,0,1,1,1,0,2,2,2,,,,,,,,,,,,,,,,,,,,,,,,,,,,,,,,,,138.23332805981624,138.23194248991786,138.23194248991786,138.23194248991786,,,,,,,,,,,,,,,,,,,,,1,001,2020_Jul_10_0014,sonority,2020.1.3,60.013573322230414,
autoConditions/train2Block2.xlsx,autoConditions/train2Block2Test.xlsx,trainingaudio/13_kopopi1.wav,pngimages/13_toast.png,,,,,,,,,,,,,,,,,,,0,1,1,1,0,3,3,3,,,,,,,,,,,,,,,,,,,,,,,,,,,,,,,,,,139.23393755041178,139.2341562451329,139.2341562451329,139.2341562451329,,,,,,,,,,,,,,,,,,,,,1,001,2020_Jul_10_0014,sonority,2020.1.3,60.013573322230414,
autoConditions/train2Block2.xlsx,autoConditions/train2Block2Test.xlsx,trainingaudio/03_kikita3.wav,pngimages/03_box.png,,,,,,,,,,,,,,,,,,,0,1,1,1,0,4,4,4,,,,,,,,,,,,,,,,,,,,,,,,,,,,,,,,,,140.23470932520576,140.23496011429233,140.23496011429233,140.23496011429233,,,,,,,,,,,,,,,,,,,,,1,001,2020_Jul_10_0014,sonority,2020.1.3,60.013573322230414,
autoConditions/train2Block2.xlsx,autoConditions/train2Block2Test.xlsx,trainingaudio/10_tokiti1.wav,pngimages/10_backpack.png,,,,,,,,,,,,,,,,,,,0,1,1,1,0,5,5,5,,,,,,,,,,,,,,,,,,,,,,,,,,,,,,,,,,141.23573030323604,141.23583043762483,141.23583043762483,141.23583043762483,,,,,,,,,,,,,,,,,,,,,1,001,2020_Jul_10_0014,sonority,2020.1.3,60.013573322230414,
autoConditions/train2Block2.xlsx,autoConditions/train2Block2Test.xlsx,trainingaudio/11_tokiko1.wav,pngimages/11_compass.png,,,,,,,,,,,,,,,,,,,0,1,1,1,0,6,6,6,,,,,,,,,,,,,,,,,,,,,,,,,,,,,,,,,,142.25320654680252,142.2429901213618,142.2429901213618,142.2429901213618,,,,,,,,,,,,,,,,,,,,,1,001,2020_Jul_10_0014,sonority,2020.1.3,60.013573322230414,
autoConditions/train2Block2.xlsx,autoConditions/train2Block2Test.xlsx,trainingaudio/24_takopa1.wav,pngimages/24_banana.png,,,,,,,,,,,,,,,,,,,0,1,1,1,0,7,7,7,,,,,,,,,,,,,,,,,,,,,,,,,,,,,,,,,,143.32121802979964,143.31967561296187,143.31967561296187,143.31967561296187,,,,,,,,,,,,,,,,,,,,,1,001,2020_Jul_10_0014,sonority,2020.1.3,60.013573322230414,
autoConditions/train2Block2.xlsx,autoConditions/train2Block2Test.xlsx,trainingaudio/17_kotako2.wav,pngimages/17_cracker.png,,,,,,,,,,,,,,,,,,,0,1,1,1,0,8,8,8,,,,,,,,,,,,,,,,,,,,,,,,,,,,,,,,,,144.32143355279112,144.3217330497573,144.3217330497573,144.3217330497573,,,,,,,,,,,,,,,,,,,,,1,001,2020_Jul_10_0014,sonority,2020.1.3,60.013573322230414,
autoConditions/train2Block2.xlsx,autoConditions/train2Block2Test.xlsx,,,trainingaudio/25_tapapi1.wav,pngimages/25_apple.png,trainingaudio/13_kopopi1.wav,pngimages/13_toast.png,0.5,-0.5,,,,,,,,,,,,,0,1,1,1,,,,,0,0,0,0,,,,,,,,,,,,,,,,,,,,,,,,,,,,,,,,,,145.33903704104011,146.34079407469835,j,0.5309198882896453,146.34079407469835,None,145.3405256148544,None,145.3405256148544,None,,,,,,,,,,,1,001,2020_Jul_10_0014,sonority,2020.1.3,60.013573322230414,
autoConditions/train2Block2.xlsx,autoConditions/train2Block2Test.xlsx,,,trainingaudio/11_tokiko1.wav,pngimages/11_compass.png,trainingaudio/24_takopa1.wav,pngimages/24_banana.png,0.5,-0.5,,,,,,,,,,,,,0,1,1,1,,,,,0,1,1,1,,,,,,,,,,,,,,,,,,,,,,,,,,,,,,,,,,146.9245901267801,147.92543726670556,j,0.03838258050382137,147.90858395560645,None,146.9235097176279,None,146.9235097176279,None,,,,,,,,,,,1,001,2020_Jul_10_0014,sonority,2020.1.3,60.013573322230414,
autoConditions/train2Block2.xlsx,autoConditions/train2Block2Test.xlsx,,,trainingaudio/09_tipata2.wav,pngimages/09_plane.png,trainingaudio/10_tokiti1.wav,pngimages/10_backpack.png,-0.5,0.5,,,,,,,,,,,,,0,1,1,1,,,,,0,2,2,2,,,,,,,,,,,,,,,,,,,,,,,,,,,,,,,,,,148.02543994750593,149.0262777233729,j,0.5946664471994154,149.00944442406762,None,148.0182080703089,None,148.0182080703089,None,,,,,,,,,,,1,001,2020_Jul_10_0014,sonority,2020.1.3,60.013573322230414,
autoConditions/train2Block2.xlsx,autoConditions/train2Block2Test.xlsx,,,trainingaudio/17_kotako2.wav,pngimages/17_cracker.png,trainingaudio/08_tipako2.wav,pngimages/08_bell.png,-0.5,0.5,,,,,,,,,,,,,0,1,1,1,,,,,0,3,3,3,,,,,,,,,,,,,,,,,,,,,,,,,,,,,,,,,,149.64341761815592,150.64447084150743,j,0.25945527956355363,150.62757977237925,None,149.63648501137504,None,149.63648501137504,None,,,,,,,,,,,1,001,2020_Jul_10_0014,sonority,2020.1.3,60.013573322230414,
autoConditions/train2Block2.xlsx,autoConditions/train2Block2Test.xlsx,,,trainingaudio/03_kikita3.wav,pngimages/03_box.png,trainingaudio/09_tipata2.wav,pngimages/09_plane.png,-0.5,0.5,,,,,,,,,,,,,0,1,1,1,,,,,0,4,4,4,,,,,,,,,,,,,,,,,,,,,,,,,,,,,,,,,,150.94475293199648,151.94544413109543,j,0.15911624988075346,151.91198255878408,None,150.9361503616674,None,150.9361503616674,None,,,,,,,,,,,1,001,2020_Jul_10_0014,sonority,2020.1.3,60.013573322230414,
autoConditions/train2Block2.xlsx,autoConditions/train2Block2Test.xlsx,,,trainingaudio/17_kotako2.wav,pngimages/17_cracker.png,trainingaudio/25_tapapi1.wav,pngimages/25_apple.png,-0.5,0.5,,,,,,,,,,,,,0,1,1,1,,,,,0,5,5,5,,,,,,,,,,,,,,,,,,,,,,,,,,,,,,,,,,152.11219302224924,153.1132292544935,j,0.11872229736763984,153.09644919406855,None,152.10803298995597,None,152.10803298995597,None,,,,,,,,,,,1,001,2020_Jul_10_0014,sonority,2020.1.3,60.013573322230414,
autoConditions/train2Block2.xlsx,autoConditions/train2Block2Test.xlsx,,,trainingaudio/03_kikita3.wav,pngimages/03_box.png,trainingaudio/24_takopa1.wav,pngimages/24_banana.png,-0.5,0.5,,,,,,,,,,,,,0,1,1,1,,,,,0,6,6,6,,,,,,,,,,,,,,,,,,,,,,,,,,,,,,,,,,153.29674144148592,154.29741685767658,j,0.10965885216137394,154.29741685767658,None,153.30149208533112,None,153.30149208533112,None,,,,,,,,,,,1,001,2020_Jul_10_0014,sonority,2020.1.3,60.013573322230414,
autoConditions/train2Block2.xlsx,autoConditions/train2Block2Test.xlsx,,,trainingaudio/13_kopopi1.wav,pngimages/13_toast.png,trainingaudio/08_tipako2.wav,pngimages/08_bell.png,0.5,-0.5,,,,,,,,,,,,,0,1,1,1,,,,,0,7,7,7,,,,,,,,,,,,,,,,,,,,,,,,,,,,,,,,,,154.44763602436285,155.44834980275482,j,0.4935008935863152,155.4315183913568,None,154.43969716521678,None,154.43969716521678,None,,,,,,,,,,,1,001,2020_Jul_10_0014,sonority,2020.1.3,60.013573322230414,
autoConditions/train2Block2.xlsx,autoConditions/train2Block2Test.xlsx,,,trainingaudio/11_tokiko1.wav,pngimages/11_compass.png,trainingaudio/10_tokiti1.wav,pngimages/10_backpack.png,-0.5,0.5,,,,,,,,,,,,,0,1,1,1,,,,,0,8,8,8,,,,,,,,,,,,,,,,,,,,,,,,,,,,,,,,,,155.96530434318117,156.96628242806764,j,0.06945217959582806,156.94962206069613,None,155.96093475370435,None,155.96093475370435,None,,,,,,,,,,,1,001,2020_Jul_10_0014,sonority,2020.1.3,60.013573322230414,
autoConditions/train2Block2.xlsx,autoConditions/train2Block2Test.xlsx,,,,,,,,,,,,,,,,,,,,,0,1,1,1,,,,,,,,,,,,,,,,,,,,,,,,,,,,,,,,,,,,,,,,,,,,,,,,,,,,,,,,,,,,,,1,001,2020_Jul_10_0014,sonority,2020.1.3,60.013573322230414,
autoConditions/train2Block3.xlsx,autoConditions/train2Block3Test.xlsx,trainingaudio/16_kotapi2.wav,pngimages/16_icecream.png,,,,,,,,,,,,,,,,,,,0,2,2,2,0,0,0,0,,,,,,,,,,,,,,,,,,,,,,,,,,,,,,,,,,157.0664763157023,None,157.05879949749215,None,,,,,,,,,,,,,,,,,,,,,1,001,2020_Jul_10_0014,sonority,2020.1.3,60.013573322230414,
autoConditions/train2Block3.xlsx,autoConditions/train2Block3Test.xlsx,trainingaudio/02_pitito3.wav,pngimages/02_pallet.png,,,,,,,,,,,,,,,,,,,0,2,2,2,0,1,1,1,,,,,,,,,,,,,,,,,,,,,,,,,,,,,,,,,,158.0663899252715,158.06654329848243,158.06654329848243,158.06654329848243,,,,,,,,,,,,,,,,,,,,,1,001,2020_Jul_10_0014,sonority,2020.1.3,60.013573322230414,
autoConditions/train2Block3.xlsx,autoConditions/train2Block3Test.xlsx,trainingaudio/26_kapako1.wav,pngimages/26_pineapple.png,,,,,,,,,,,,,,,,,,,0,2,2,2,0,2,2,2,,,,,,,,,,,,,,,,,,,,,,,,,,,,,,,,,,159.08372268817618,159.07611761032604,159.07611761032604,159.07611761032604,,,,,,,,,,,,,,,,,,,,,1,001,2020_Jul_10_0014,sonority,2020.1.3,60.013573322230414,
autoConditions/train2Block3.xlsx,autoConditions/train2Block3Test.xlsx,trainingaudio/22_kakoki1.wav,pngimages/22_egg.png,,,,,,,,,,,,,,,,,,,0,2,2,2,0,3,3,3,,,,,,,,,,,,,,,,,,,,,,,,,,,,,,,,,,160.13507841028039,160.12895964080235,160.12895964080235,160.12895964080235,,,,,,,,,,,,,,,,,,,,,1,001,2020_Jul_10_0014,sonority,2020.1.3,60.013573322230414,
autoConditions/train2Block3.xlsx,autoConditions/train2Block3Test.xlsx,trainingaudio/14_pokoto1.wav,pngimages/14_coffee.png,,,,,,,,,,,,,,,,,,,0,2,2,2,0,4,4,4,,,,,,,,,,,,,,,,,,,,,,,,,,,,,,,,,,161.1354735861707,162.13626658095745,161.13896288420074,161.13896288420074,,,,,,,,,,,,,,,,,,,,,1,001,2020_Jul_10_0014,sonority,2020.1.3,60.013573322230414,
autoConditions/train2Block3.xlsx,autoConditions/train2Block3Test.xlsx,trainingaudio/05_titopo2.wav,pngimages/05_megaphone.png,,,,,,,,,,,,,,,,,,,0,2,2,2,0,5,5,5,,,,,,,,,,,,,,,,,,,,,,,,,,,,,,,,,,162.1529748255445,None,162.15407705889083,162.15407705889083,,,,,,,,,,,,,,,,,,,,,1,001,2020_Jul_10_0014,sonority,2020.1.3,60.013573322230414,
autoConditions/train2Block3.xlsx,autoConditions/train2Block3Test.xlsx,trainingaudio/23_patoko1.wav,pngimages/23_lemon.png,,,,,,,,,,,,,,,,,,,0,2,2,2,0,6,6,6,,,,,,,,,,,,,,,,,,,,,,,,,,,,,,,,,,163.15388403968535,163.15410537744174,163.15410537744174,163.15410537744174,,,,,,,,,,,,,,,,,,,,,1,001,2020_Jul_10_0014,sonority,2020.1.3,60.013573322230414,
autoConditions/train2Block3.xlsx,autoConditions/train2Block3Test.xlsx,trainingaudio/27_pakapa1.wav,pngimages/27_kiwi.png,,,,,,,,,,,,,,,,,,,0,2,2,2,0,7,7,7,,,,,,,,,,,,,,,,,,,,,,,,,,,,,,,,,,164.15447608610265,164.15493001352297,164.15493001352297,164.15493001352297,,,,,,,,,,,,,,,,,,,,,1,001,2020_Jul_10_0014,sonority,2020.1.3,60.013573322230414,
autoConditions/train2Block3.xlsx,autoConditions/train2Block3Test.xlsx,trainingaudio/12_pokika3.wav,pngimages/12_pie.png,,,,,,,,,,,,,,,,,,,0,2,2,2,0,8,8,8,,,,,,,,,,,,,,,,,,,,,,,,,,,,,,,,,,165.1721830314258,166.17289832019014,165.17727561231004,165.17727561231004,,,,,,,,,,,,,,,,,,,,,1,001,2020_Jul_10_0014,sonority,2020.1.3,60.013573322230414,
autoConditions/train2Block3.xlsx,autoConditions/train2Block3Test.xlsx,,,trainingaudio/02_pitito3.wav,pngimages/02_pallet.png,trainingaudio/12_pokika3.wav,pngimages/12_pie.png,0.5,-0.5,,,,,,,,,,,,,0,2,2,2,,,,,0,0,0,0,,,,,,,,,,,,,,,,,,,,,,,,,,,,,,,,,,166.22302305395132,167.2246249775053,j,0.8158142846659757,167.2246249775053,None,166.2253087760182,None,166.2253087760182,None,,,,,,,,,,,1,001,2020_Jul_10_0014,sonority,2020.1.3,60.013573322230414,
autoConditions/train2Block3.xlsx,autoConditions/train2Block3Test.xlsx,,,trainingaudio/16_kotapi2.wav,pngimages/16_icecream.png,trainingaudio/05_titopo2.wav,pngimages/05_megaphone.png,0.5,-0.5,,,,,,,,,,,,,0,2,2,2,,,,,0,1,1,1,,,,,,,,,,,,,,,,,,,,,,,,,,,,,,,,,,168.0753162331879,169.07653823512373,j,0.05649172479752451,169.05943194503197,None,168.0696900553885,None,168.0696900553885,None,,,,,,,,,,,1,001,2020_Jul_10_0014,sonority,2020.1.3,60.013573322230414,
autoConditions/train2Block3.xlsx,autoConditions/train2Block3Test.xlsx,,,trainingaudio/27_pakapa1.wav,pngimages/27_kiwi.png,trainingaudio/26_kapako1.wav,pngimages/26_pineapple.png,0.5,-0.5,,,,,,,,,,,,,0,2,2,2,,,,,0,2,2,2,,,,,,,,,,,,,,,,,,,,,,,,,,,,,,,,,,169.15962583272483,170.1605536993011,j,0.4353417727397755,170.1605536993011,None,169.16393455624348,None,169.16393455624348,None,,,,,,,,,,,1,001,2020_Jul_10_0014,sonority,2020.1.3,60.013573322230414,
autoConditions/train2Block3.xlsx,autoConditions/train2Block3Test.xlsx,,,trainingaudio/22_kakoki1.wav,pngimages/22_egg.png,trainingaudio/14_pokoto1.wav,pngimages/14_coffee.png,-0.5,0.5,,,,,,,,,,,,,0,2,2,2,,,,,0,3,3,3,,,,,,,,,,,,,,,,,,,,,,,,,,,,,,,,,,170.66086441045044,171.66176780982642,j,0.3889616570668295,171.6449998319731,None,170.66071813571034,None,170.66071813571034,None,,,,,,,,,,,1,001,2020_Jul_10_0014,sonority,2020.1.3,60.013573322230414,
autoConditions/train2Block3.xlsx,autoConditions/train2Block3Test.xlsx,,,trainingaudio/23_patoko1.wav,pngimages/23_lemon.png,trainingaudio/12_pokika3.wav,pngimages/12_pie.png,0.5,-0.5,,,,,,,,,,,,,0,2,2,2,,,,,0,4,4,4,,,,,,,,,,,,,,,,,,,,,,,,,,,,,,,,,,172.11213698926147,173.1126447597053,j,0.13492277154000476,173.09614071069518,None,172.1083867829875,None,172.1083867829875,None,,,,,,,,,,,1,001,2020_Jul_10_0014,sonority,2020.1.3,60.013573322230414,
autoConditions/train2Block3.xlsx,autoConditions/train2Block3Test.xlsx,,,trainingaudio/22_kakoki1.wav,pngimages/22_egg.png,trainingaudio/05_titopo2.wav,pngimages/05_megaphone.png,-0.5,0.5,,,,,,,,,,,,,0,2,2,2,,,,,0,5,5,5,,,,,,,,,,,,,,,,,,,,,,,,,,,,,,,,,,173.2796541059448,174.28073761129053,j,0.102319817582611,174.2637158992584,None,173.27390566753456,None,173.27390566753456,None,,,,,,,,,,,1,001,2020_Jul_10_0014,sonority,2020.1.3,60.013573322230414,
autoConditions/train2Block3.xlsx,autoConditions/train2Block3Test.xlsx,,,trainingaudio/02_pitito3.wav,pngimages/02_pallet.png,trainingaudio/16_kotapi2.wav,pngimages/16_icecream.png,0.5,-0.5,,,,,,,,,,,,,0,2,2,2,,,,,0,6,6,6,,,,,,,,,,,,,,,,,,,,,,,,,,,,,,,,,,174.39782981762545,175.39805946213892,j,0.10198112775105983,175.39805946213892,None,174.40410868130857,None,174.40410868130857,None,,,,,,,,,,,1,001,2020_Jul_10_0014,sonority,2020.1.3,60.013573322230414,
autoConditions/train2Block3.xlsx,autoConditions/train2Block3Test.xlsx,,,trainingaudio/23_patoko1.wav,pngimages/23_lemon.png,trainingaudio/26_kapako1.wav,pngimages/26_pineapple.png,-0.5,0.5,,,,,,,,,,,,,0,2,2,2,,,,,0,7,7,7,,,,,,,,,,,,,,,,,,,,,,,,,,,,,,,,,,175.5483835962135,176.54879833076848,j,0.0390999837545678,176.54879833076848,None,175.55298569990555,None,175.55298569990555,None,,,,,,,,,,,1,001,2020_Jul_10_0014,sonority,2020.1.3,60.013573322230414,
autoConditions/train2Block3.xlsx,autoConditions/train2Block3Test.xlsx,,,trainingaudio/27_pakapa1.wav,pngimages/27_kiwi.png,trainingaudio/14_pokoto1.wav,pngimages/14_coffee.png,-0.5,0.5,,,,,,,,,,,,,0,2,2,2,,,,,0,8,8,8,,,,,,,,,,,,,,,,,,,,,,,,,,,,,,,,,,176.63239830526288,177.63346700946568,j,0.1451465220307,177.61666995793348,None,176.63073861185694,None,176.63073861185694,None,,,,,,,,,,,1,001,2020_Jul_10_0014,sonority,2020.1.3,60.013573322230414,
autoConditions/train2Block3.xlsx,autoConditions/train2Block3Test.xlsx,,,,,,,,,,,,,,,,,,,,,0,2,2,2,,,,,,,,,,,,,,,,,,,,,,,,,,,,,,,,,,,,,,,,,,,,,,,,,,,,,,,,,,,,,,1,001,2020_Jul_10_0014,sonority,2020.1.3,60.013573322230414,
,,,,,,,,,,,,,,,,,,,,,,,,,,,,,,,,,,,,,,,,,,,,,,,,,,,,,,,,,,,,,,,,,,,,,,,,,,,,,177.78193775127875,None,j,3.83825125801377,177.78193775127875,None,,,,,1,001,2020_Jul_10_0014,sonority,2020.1.3,60.013573322230414,
,,,,,,,,,,,,,,,,,,,,,,,,,,,,,,,,,,,,,,,,,,,,,,,,,,,,,,,,,,,,,,,,,,,,,,,,,,,,,,,,,,,None,None,None,None,,,,,,,
