condFiles,audio,imageLoc,train1blocks.thisRepN,train1blocks.thisTrialN,train1blocks.thisN,train1blocks.thisIndex,testloop.thisRepN,testloop.thisTrialN,testloop.thisN,testloop.thisIndex,instructions.started,instructions.stopped,stimulitrain1r1.started,stimulitrain1r1.stopped,image.started,image.stopped,sound_1.started,sound_1.stopped,correct.started,correct.stopped,incorrect.started,incorrect.stopped,mouse.x,mouse.y,mouse.leftButton,mouse.midButton,mouse.rightButton,mouse.time,mouse.started,mouse.stopped,mouse.clicked_name,participant,session,date,expName,psychopyVersion,frameRate,
autoConditions/train1Block1Condition.xlsx,wavaudio/pakito1.wav,pngimages/17_cracker.png,0,0,0,0,0,0,0,0,14.800799415213987,None,17.75196946421638,19.751550726534333,17.771195905806962,None,,,,,,,,,,,,,,,,1,001,2020_Jul_02_2249,sonority,2020.1.3,59.97649344130563,
autoConditions/train1Block1Condition.xlsx,wavaudio/pakito1.wav,pngimages/26_pineapple.png,0,0,0,0,0,1,1,1,,,20.71782270745025,22.717359981499612,20.715075992047787,None,,,,,,,,,,,,,,,,1,001,2020_Jul_02_2249,sonority,2020.1.3,59.97649344130563,
autoConditions/train1Block1Condition.xlsx,wavaudio/pakito1.wav,pngimages/100_bicycle.png,0,0,0,0,0,2,2,2,,,23.733564639661925,25.732991471188143,23.73397582571488,None,,,,,,,,,,,,,,,,1,001,2020_Jul_02_2249,sonority,2020.1.3,59.97649344130563,
autoConditions/train1Block1Condition.xlsx,wavaudio/pakito1.wav,pngimages/21_cheese.png,0,0,0,0,0,3,3,3,,,26.732883105368817,28.732284638972487,26.725740021676756,None,,,,,,,,,,,,,,,,1,001,2020_Jul_02_2249,sonority,2020.1.3,59.97649344130563,
autoConditions/train1Block1Condition.xlsx,wavaudio/pakito1.wav,pngimages/01_gift.png,0,0,0,0,0,4,4,4,,,29.682023843523346,31.68158377247164,29.683040481235366,None,,,,,,,,,,,,,,,,1,001,2020_Jul_02_2249,sonority,2020.1.3,59.97649344130563,
autoConditions/train1Block1Condition.xlsx,wavaudio/pakito1.wav,pngimages/23_lemon.png,0,0,0,0,0,5,5,5,,,32.681226769293424,34.680929424008355,32.681245081999805,None,,,,,,,,,,,,,,,,1,001,2020_Jul_02_2249,sonority,2020.1.3,59.97649344130563,
autoConditions/train1Block1Condition.xlsx,,,0,0,0,0,,,,,,,,,,,35.696859958127604,37.69686902005924,35.6901439189096,None,35.6901439189096,None,-0.05925925925925926,-0.3685185185185185,1,0,0,2.7472727299900725,0.013157199195120484,None,,1,001,2020_Jul_02_2249,sonority,2020.1.3,59.97649344130563,
autoConditions/train1Block2Condition.xlsx,wavaudio/pakito1.wav,pngimages/20_pizza.png,0,1,1,1,0,0,0,0,,,38.46338367247954,40.46238761290442,38.46585192164639,None,,,,,,,,,,,,,,,,1,001,2020_Jul_02_2249,sonority,2020.1.3,59.97649344130563,
autoConditions/train1Block2Condition.xlsx,wavaudio/pakito1.wav,pngimages/07_suitcase.png,0,1,1,1,0,1,1,1,,,41.478872625221264,43.47833173995605,41.483311660180334,41.483311660180334,,,,,,,,,,,,,,,,1,001,2020_Jul_02_2249,sonority,2020.1.3,59.97649344130563,
autoConditions/train1Block2Condition.xlsx,wavaudio/pakito1.wav,pngimages/100_bicycle.png,0,1,1,1,0,2,2,2,,,44.511301764531524,46.51081695005996,44.51186134008458,44.51186134008458,,,,,,,,,,,,,,,,1,001,2020_Jul_02_2249,sonority,2020.1.3,59.97649344130563,
autoConditions/train1Block2Condition.xlsx,wavaudio/pakito1.wav,pngimages/02_pallet.png,0,1,1,1,0,3,3,3,,,47.527281572989885,49.52663269947516,47.527684641070664,47.527684641070664,,,,,,,,,,,,,,,,1,001,2020_Jul_02_2249,sonority,2020.1.3,59.97649344130563,
autoConditions/train1Block2Condition.xlsx,wavaudio/pakito1.wav,pngimages/15_barrel.png,0,1,1,1,0,4,4,4,,,50.57621762431808,52.57582814915804,50.572512229846325,50.572512229846325,,,,,,,,,,,,,,,,1,001,2020_Jul_02_2249,sonority,2020.1.3,59.97649344130563,
autoConditions/train1Block2Condition.xlsx,wavaudio/pakito1.wav,pngimages/16_icecream.png,0,1,1,1,0,5,5,5,,,53.57556667406461,55.57498123421101,53.57771190244239,53.57771190244239,,,,,,,,,,,,,,,,1,001,2020_Jul_02_2249,sonority,2020.1.3,59.97649344130563,
autoConditions/train1Block2Condition.xlsx,,,0,1,1,1,,,,,,,,,,,56.60795805522939,58.60805547120981,56.598449424491264,None,56.598449424491264,None,,,,,,,0.01619786163792014,7.014470427064225,,1,001,2020_Jul_02_2249,sonority,2020.1.3,59.97649344130563,
autoConditions/train1Block3Condition.xlsx,wavaudio/pakito1.wav,pngimages/20_pizza.png,0,2,2,2,0,0,0,0,,,63.639957884576866,65.65556048927829,63.63188236381393,None,,,,,,,,,,,,,,,,1,001,2020_Jul_02_2249,sonority,2020.1.3,59.97649344130563,
autoConditions/train1Block3Condition.xlsx,wavaudio/pakito1.wav,pngimages/05_megaphone.png,0,2,2,2,0,1,1,1,,,66.63844680408366,68.63804184808396,66.64013402629644,66.64013402629644,,,,,,,,,,,,,,,,1,001,2020_Jul_02_2249,sonority,2020.1.3,59.97649344130563,
autoConditions/train1Block3Condition.xlsx,wavaudio/pakito1.wav,pngimages/03_box.png,0,2,2,2,0,2,2,2,,,69.65445700783167,71.65392329660244,69.65690694435034,69.65690694435034,,,,,,,,,,,,,,,,1,001,2020_Jul_02_2249,sonority,2020.1.3,59.97649344130563,
autoConditions/train1Block3Condition.xlsx,wavaudio/pakito1.wav,pngimages/16_icecream.png,0,2,2,2,0,3,3,3,,,72.6703781024029,74.66974244423909,72.67040132364491,72.67040132364491,,,,,,,,,,,,,,,,1,001,2020_Jul_02_2249,sonority,2020.1.3,59.97649344130563,
autoConditions/train1Block3Condition.xlsx,wavaudio/pakito1.wav,pngimages/01_gift.png,0,2,2,2,0,4,4,4,,,75.66951646179078,77.66896840248955,75.6704598487704,75.6704598487704,,,,,,,,,,,,,,,,1,001,2020_Jul_02_2249,sonority,2020.1.3,59.97649344130563,
autoConditions/train1Block3Condition.xlsx,wavaudio/pakito1.wav,pngimages/21_cheese.png,0,2,2,2,0,5,5,5,,,78.70193351852942,80.70145210227929,78.70173717621947,78.70173717621947,,,,,,,,,,,,,,,,1,001,2020_Jul_02_2249,sonority,2020.1.3,59.97649344130563,
autoConditions/train1Block3Condition.xlsx,,,0,2,2,2,,,,,,,,,,,81.73442005018588,83.7343956961995,81.73510026297299,None,81.73510026297299,None,,,,,,,0.006451921013649553,7.011483947455417,,1,001,2020_Jul_02_2249,sonority,2020.1.3,59.97649344130563,
autoConditions/train1Block4Condition.xlsx,wavaudio/pakito1.wav,pngimages/08_bell.png,0,3,3,3,0,0,0,0,,,88.76628546057037,90.76557107665576,88.75945388147375,None,,,,,,,,,,,,,,,,1,001,2020_Jul_02_2249,sonority,2020.1.3,59.97649344130563,
autoConditions/train1Block4Condition.xlsx,wavaudio/pakito1.wav,pngimages/01_gift.png,0,3,3,3,0,1,1,1,,,91.76545648073662,93.7812018112163,91.76616425695829,91.76616425695829,,,,,,,,,,,,,,,,1,001,2020_Jul_02_2249,sonority,2020.1.3,59.97649344130563,
autoConditions/train1Block4Condition.xlsx,wavaudio/pakito1.wav,pngimages/04_ladder.png,0,3,3,3,0,2,2,2,,,94.79754051072524,96.79739778494695,94.78736733680125,94.78736733680125,,,,,,,,,,,,,,,,1,001,2020_Jul_02_2249,sonority,2020.1.3,59.97649344130563,
autoConditions/train1Block4Condition.xlsx,wavaudio/pakito1.wav,pngimages/09_plane.png,0,3,3,3,0,3,3,3,,,97.81340761111352,99.81276836595498,97.80875882972032,97.80875882972032,,,,,,,,,,,,,,,,1,001,2020_Jul_02_2249,sonority,2020.1.3,59.97649344130563,
autoConditions/train1Block4Condition.xlsx,wavaudio/pakito1.wav,pngimages/23_lemon.png,0,3,3,3,0,4,4,4,,,100.81244798820117,102.81192598200869,100.81328338687308,100.81328338687308,,,,,,,,,,,,,,,,1,001,2020_Jul_02_2249,sonority,2020.1.3,59.97649344130563,
autoConditions/train1Block4Condition.xlsx,wavaudio/pakito1.wav,pngimages/20_pizza.png,0,3,3,3,0,5,5,5,,,103.84484201240122,105.84454561106395,103.84448519808939,103.84448519808939,,,,,,,,,,,,,,,,1,001,2020_Jul_02_2249,sonority,2020.1.3,59.97649344130563,
autoConditions/train1Block4Condition.xlsx,,,0,3,3,3,,,,,,,,,,,106.87753583626473,108.87795174209168,106.86929342453368,None,106.86929342453368,None,,,,,,,0.014451359224040061,7.010948914801702,,1,001,2020_Jul_02_2249,sonority,2020.1.3,59.97649344130563,
autoConditions/train1Block5Condition.xlsx,wavaudio/pakito1.wav,pngimages/12_pie.png,0,4,4,4,0,0,0,0,,,113.90951017885818,115.92510107852286,113.90373903693398,None,,,,,,,,,,,,,,,,1,001,2020_Jul_02_2249,sonority,2020.1.3,59.97649344130563,
autoConditions/train1Block5Condition.xlsx,wavaudio/pakito1.wav,pngimages/21_cheese.png,0,4,4,4,0,1,1,1,,,116.92496439408279,118.92410954996012,116.92116252763662,116.92116252763662,,,,,,,,,,,,,,,,1,001,2020_Jul_02_2249,sonority,2020.1.3,59.97649344130563,
autoConditions/train1Block5Condition.xlsx,wavaudio/pakito1.wav,pngimages/11_compass.png,0,4,4,4,0,2,2,2,,,119.92388470023289,121.92342763807392,119.92927939357469,119.92927939357469,,,,,,,,,,,,,,,,1,001,2020_Jul_02_2249,sonority,2020.1.3,59.97649344130563,
autoConditions/train1Block5Condition.xlsx,wavaudio/pakito1.wav,pngimages/19_burger.png,0,4,4,4,0,3,3,3,,,122.93977596588084,124.93931512790732,122.9448395203799,122.9448395203799,,,,,,,,,,,,,,,,1,001,2020_Jul_02_2249,sonority,2020.1.3,59.97649344130563,
autoConditions/train1Block5Condition.xlsx,wavaudio/pakito1.wav,pngimages/03_box.png,0,4,4,4,0,4,4,4,,,125.95569668285899,127.95515579759376,125.95654793997528,125.95654793997528,,,,,,,,,,,,,,,,1,001,2020_Jul_02_2249,sonority,2020.1.3,59.97649344130563,
autoConditions/train1Block5Condition.xlsx,wavaudio/pakito1.wav,pngimages/15_barrel.png,0,4,4,4,0,5,5,5,,,129.0047195779218,131.004442622012,128.9953697200981,128.9953697200981,,,,,,,,,,,,,,,,1,001,2020_Jul_02_2249,sonority,2020.1.3,59.97649344130563,
autoConditions/train1Block5Condition.xlsx,,,0,4,4,4,,,,,,,,,,,132.07045309004025,134.07083161536139,132.06874245783547,None,132.06874245783547,None,,,,,,,0.008824642165564,7.000055693206377,,1,001,2020_Jul_02_2249,sonority,2020.1.3,59.97649344130563,
autoConditions/train1Block6Condition.xlsx,wavaudio/pakito1.wav,pngimages/01_gift.png,0,5,5,5,0,0,0,0,,,139.08613649716136,141.10171701340005,139.0786909708404,None,,,,,,,,,,,,,,,,1,001,2020_Jul_02_2249,sonority,2020.1.3,59.97649344130563,
autoConditions/train1Block6Condition.xlsx,wavaudio/pakito1.wav,pngimages/09_plane.png,0,5,5,5,0,1,1,1,,,142.1012163405074,144.10059937264305,142.10176836443134,142.10176836443134,,,,,,,,,,,,,,,,1,001,2020_Jul_02_2249,sonority,2020.1.3,59.97649344130563,
autoConditions/train1Block6Condition.xlsx,wavaudio/pakito1.wav,pngimages/20_pizza.png,0,5,5,5,0,2,2,2,,,145.13358525560471,147.13308420515386,145.12750544096343,145.12750544096343,,,,,,,,,,,,,,,,1,001,2020_Jul_02_2249,sonority,2020.1.3,59.97649344130563,
autoConditions/train1Block6Condition.xlsx,wavaudio/pakito1.wav,pngimages/24_banana.png,0,5,5,5,0,3,3,3,,,148.1662666192453,150.16561548021855,148.16268809215399,148.16268809215399,,,,,,,,,,,,,,,,1,001,2020_Jul_02_2249,sonority,2020.1.3,59.97649344130563,
autoConditions/train1Block6Condition.xlsx,wavaudio/pakito1.wav,pngimages/10_backpack.png,0,5,5,5,0,4,4,4,,,151.16529472487164,153.1648565417854,151.17015174240805,151.17015174240805,,,,,,,,,,,,,,,,1,001,2020_Jul_02_2249,sonority,2020.1.3,59.97649344130563,
autoConditions/train1Block6Condition.xlsx,wavaudio/pakito1.wav,pngimages/16_icecream.png,0,5,5,5,0,5,5,5,,,154.18125244486728,156.18060206098016,154.18133117054822,154.18133117054822,,,,,,,,,,,,,,,,1,001,2020_Jul_02_2249,sonority,2020.1.3,59.97649344130563,
autoConditions/train1Block6Condition.xlsx,,,0,5,5,5,,,,,,,,,,,157.19697889622768,159.1971333270194,157.18828206532635,None,157.18828206532635,None,-0.03888888888888889,-0.33611111111111114,1,0,0,6.56432664411841,0.014444751548580825,None,,1,001,2020_Jul_02_2249,sonority,2020.1.3,59.97649344130563,
autoConditions/train1Block7Condition.xlsx,wavaudio/pakito1.wav,pngimages/18_donut.png,0,6,6,6,0,0,0,0,,,163.77912888968132,165.79476339998655,163.77230977074942,None,,,,,,,,,,,,,,,,1,001,2020_Jul_02_2249,sonority,2020.1.3,59.97649344130563,
autoConditions/train1Block7Condition.xlsx,wavaudio/pakito1.wav,pngimages/04_ladder.png,0,6,6,6,0,1,1,1,,,166.7779491368041,168.77716320124455,166.77829367975937,166.77829367975937,,,,,,,,,,,,,,,,1,001,2020_Jul_02_2249,sonority,2020.1.3,59.97649344130563,
autoConditions/train1Block7Condition.xlsx,wavaudio/pakito1.wav,pngimages/23_lemon.png,0,6,6,6,0,2,2,2,,,169.81027519640048,171.80964123731246,169.7994042522041,169.7994042522041,,,,,,,,,,,,,,,,1,001,2020_Jul_02_2249,sonority,2020.1.3,59.97649344130563,
autoConditions/train1Block7Condition.xlsx,wavaudio/pakito1.wav,pngimages/100_bicycle.png,0,6,6,6,0,3,3,3,,,172.82590517571663,174.82564388943138,172.82308502076194,172.82308502076194,,,,,,,,,,,,,,,,1,001,2020_Jul_02_2249,sonority,2020.1.3,59.97649344130563,
autoConditions/train1Block7Condition.xlsx,wavaudio/pakito1.wav,pngimages/24_banana.png,0,6,6,6,0,4,4,4,,,175.85873039784494,177.8579618310905,175.85202021116856,175.85202021116856,,,,,,,,,,,,,,,,1,001,2020_Jul_02_2249,sonority,2020.1.3,59.97649344130563,
autoConditions/train1Block7Condition.xlsx,wavaudio/pakito1.wav,pngimages/20_pizza.png,0,6,6,6,0,5,5,5,,,178.87438020023984,180.87382402294315,178.86788240307942,178.86788240307942,,,,,,,,,,,,,,,,1,001,2020_Jul_02_2249,sonority,2020.1.3,59.97649344130563,
autoConditions/train1Block7Condition.xlsx,,,0,6,6,6,,,,,,,,,,,181.92345029292628,183.92385128431488,181.9267095749965,None,181.9267095749965,None,0.3768518518518518,0.25,1,0,0,4.7753583624144085,0.0033967216731980443,None,correct,1,001,2020_Jul_02_2249,sonority,2020.1.3,59.97649344130563,
autoConditions/train1Block8Condition.xlsx,wavaudio/pakito1.wav,pngimages/04_ladder.png,0,7,7,7,0,0,0,0,,,186.73953438936152,188.75506978458725,186.74551131308544,None,,,,,,,,,,,,,,,,1,001,2020_Jul_02_2249,sonority,2020.1.3,59.97649344130563,
autoConditions/train1Block8Condition.xlsx,wavaudio/pakito1.wav,pngimages/20_pizza.png,0,7,7,7,0,1,1,1,,,189.7716542895767,191.77107885561418,189.7631364322151,189.7631364322151,,,,,,,,,,,,,,,,1,001,2020_Jul_02_2249,sonority,2020.1.3,59.97649344130563,
autoConditions/train1Block8Condition.xlsx,wavaudio/pakito1.wav,pngimages/16_icecream.png,0,7,7,7,0,2,2,2,,,192.77059083170607,194.7699015570106,192.7706771090743,192.7706771090743,,,,,,,,,,,,,,,,1,001,2020_Jul_02_2249,sonority,2020.1.3,59.97649344130563,
autoConditions/train1Block8Condition.xlsx,wavaudio/pakito1.wav,pngimages/10_backpack.png,0,7,7,7,0,3,3,3,,,195.76979602303473,197.76946431782562,195.77156669070246,195.77156669070246,,,,,,,,,,,,,,,,1,001,2020_Jul_02_2249,sonority,2020.1.3,59.97649344130563,
autoConditions/train1Block8Condition.xlsx,wavaudio/pakito1.wav,pngimages/06_tent.png,0,7,7,7,0,4,4,4,,,198.78571825032705,200.78521285770694,198.7865506283706,198.7865506283706,,,,,,,,,,,,,,,,1,001,2020_Jul_02_2249,sonority,2020.1.3,59.97649344130563,
autoConditions/train1Block8Condition.xlsx,wavaudio/pakito1.wav,pngimages/12_pie.png,0,7,7,7,0,5,5,5,,,201.90121698238073,203.90096192620695,201.89253468840616,201.89253468840616,,,,,,,,,,,,,,,,1,001,2020_Jul_02_2249,sonority,2020.1.3,59.97649344130563,
autoConditions/train1Block8Condition.xlsx,,,0,7,7,7,,,,,,,,,,,205.00050652537612,None,205.00028431875398,None,205.00028431875398,None,0.10462962962962963,0.016666666666666666,1,0,0,0.9741258614230901,0.006611260410863906,None,,1,001,2020_Jul_02_2249,sonority,2020.1.3,59.97649344130563,
autoConditions/train1Block9Condition.xlsx,wavaudio/pakito1.wav,pngimages/100_bicycle.png,0,8,8,8,0,0,0,0,,,206.01754752618146,208.03316447895486,206.0219918472576,None,,,,,,,,,,,,,,,,1,001,2020_Jul_02_2249,sonority,2020.1.3,59.97649344130563,
autoConditions/train1Block9Condition.xlsx,wavaudio/pakito1.wav,pngimages/09_plane.png,0,8,8,8,0,1,1,1,,,209.09942868168582,211.09896444546757,209.0892511656275,209.0892511656275,,,,,,,,,,,,,,,,1,001,2020_Jul_02_2249,sonority,2020.1.3,59.97649344130563,
autoConditions/train1Block9Condition.xlsx,wavaudio/pakito1.wav,pngimages/18_donut.png,0,8,8,8,0,2,2,2,,,212.09860215616064,214.0980408815085,212.09885079343803,212.09885079343803,,,,,,,,,,,,,,,,1,001,2020_Jul_02_2249,sonority,2020.1.3,59.97649344130563,
autoConditions/train1Block9Condition.xlsx,wavaudio/pakito1.wav,pngimages/03_box.png,0,8,8,8,0,3,3,3,,,215.1145213628246,217.114081669366,215.11665186547907,215.11665186547907,,,,,,,,,,,,,,,,1,001,2020_Jul_02_2249,sonority,2020.1.3,59.97649344130563,
autoConditions/train1Block9Condition.xlsx,wavaudio/pakito1.wav,pngimages/06_tent.png,0,8,8,8,0,4,4,4,,,218.13028840418556,220.1298740086495,218.1321817857679,218.1321817857679,,,,,,,,,,,,,,,,1,001,2020_Jul_02_2249,sonority,2020.1.3,59.97649344130563,
autoConditions/train1Block9Condition.xlsx,wavaudio/pakito1.wav,pngimages/11_compass.png,0,8,8,8,0,5,5,5,,,221.1461513512244,223.1455138051533,221.14712230162695,221.14712230162695,,,,,,,,,,,,,,,,1,001,2020_Jul_02_2249,sonority,2020.1.3,59.97649344130563,
autoConditions/train1Block9Condition.xlsx,,,0,8,8,8,,,,,,,,,,,224.19533094247456,None,224.1881049796939,None,224.1881049796939,None,0.10092592592592593,0.002777777777777778,1,0,0,0.9315161854028702,0.01359878049697727,None,,1,001,2020_Jul_02_2249,sonority,2020.1.3,59.97649344130563,
autoConditions/train1Block1Condition.xlsx,wavaudio/pakito1.wav,pngimages/17_cracker.png,1,0,9,0,0,0,0,0,,,225.1457365781069,227.1613578731194,225.1406735900091,None,,,,,,,,,,,,,,,,1,001,2020_Jul_02_2249,sonority,2020.1.3,59.97649344130563,
autoConditions/train1Block1Condition.xlsx,wavaudio/pakito1.wav,pngimages/26_pineapple.png,1,0,9,0,0,1,1,1,,,228.16087230348495,230.1602840317646,228.16421389830066,228.16421389830066,,,,,,,,,,,,,,,,1,001,2020_Jul_02_2249,sonority,2020.1.3,59.97649344130563,
autoConditions/train1Block1Condition.xlsx,wavaudio/pakito1.wav,pngimages/100_bicycle.png,1,0,9,0,0,2,2,2,,,231.1932612304343,233.19284513575258,231.19115055073053,231.19115055073053,,,,,,,,,,,,,,,,1,001,2020_Jul_02_2249,sonority,2020.1.3,59.97649344130563,
autoConditions/train1Block1Condition.xlsx,wavaudio/pakito1.wav,pngimages/21_cheese.png,1,0,9,0,0,3,3,3,,,234.2091419237666,236.20854043669533,234.20915589429205,234.20915589429205,,,,,,,,,,,,,,,,1,001,2020_Jul_02_2249,sonority,2020.1.3,59.97649344130563,
autoConditions/train1Block1Condition.xlsx,wavaudio/pakito1.wav,pngimages/01_gift.png,1,0,9,0,0,4,4,4,,,237.22508982663277,239.2244815430604,237.21698806388304,237.21698806388304,,,,,,,,,,,,,,,,1,001,2020_Jul_02_2249,sonority,2020.1.3,59.97649344130563,
autoConditions/train1Block1Condition.xlsx,wavaudio/pakito1.wav,pngimages/23_lemon.png,1,0,9,0,0,5,5,5,,,240.24094182376285,242.2403471331927,240.2331757309148,240.2331757309148,,,,,,,,,,,,,,,,1,001,2020_Jul_02_2249,sonority,2020.1.3,59.97649344130563,
autoConditions/train1Block1Condition.xlsx,,,1,0,9,0,,,,,,,,,,,243.25674284745475,None,243.2513430567924,None,243.2513430567924,None,0.08796296296296297,-0.03518518518518519,1,0,0,0.8297478209715337,0.012116207391954958,None,,1,001,2020_Jul_02_2249,sonority,2020.1.3,59.97649344130563,
autoConditions/train1Block2Condition.xlsx,wavaudio/pakito1.wav,pngimages/20_pizza.png,1,1,10,1,0,0,0,0,,,244.10689705169062,246.10597159987083,244.1109530304093,None,,,,,,,,,,,,,,,,1,001,2020_Jul_02_2249,sonority,2020.1.3,59.97649344130563,
autoConditions/train1Block2Condition.xlsx,wavaudio/pakito1.wav,pngimages/07_suitcase.png,1,1,10,1,0,1,1,1,,,247.1223240810854,249.12180849380093,247.1234717395855,247.1234717395855,,,,,,,,,,,,,,,,1,001,2020_Jul_02_2249,sonority,2020.1.3,59.97649344130563,
autoConditions/train1Block2Condition.xlsx,wavaudio/pakito1.wav,pngimages/100_bicycle.png,1,1,10,1,0,2,2,2,,,250.154859698331,252.15435864788014,250.1518518854282,250.1518518854282,,,,,,,,,,,,,,,,1,001,2020_Jul_02_2249,sonority,2020.1.3,59.97649344130563,
autoConditions/train1Block2Condition.xlsx,wavaudio/pakito1.wav,pngimages/02_pallet.png,1,1,10,1,0,3,3,3,,,253.15403940290562,255.15341431699926,253.15742196526844,253.15742196526844,,,,,,,,,,,,,,,,1,001,2020_Jul_02_2249,sonority,2020.1.3,59.97649344130563,
autoConditions/train1Block2Condition.xlsx,wavaudio/pakito1.wav,pngimages/15_barrel.png,1,1,10,1,0,4,4,4,,,256.2031918083259,258.20268905878766,256.1972428255831,256.1972428255831,,,,,,,,,,,,,,,,1,001,2020_Jul_02_2249,sonority,2020.1.3,59.97649344130563,
autoConditions/train1Block2Condition.xlsx,wavaudio/pakito1.wav,pngimages/16_icecream.png,1,1,10,1,0,5,5,5,,,259.20238038601235,261.2017492587911,259.20244212058606,259.20244212058606,,,,,,,,,,,,,,,,1,001,2020_Jul_02_2249,sonority,2020.1.3,59.97649344130563,
autoConditions/train1Block2Condition.xlsx,,,1,1,10,1,,,,,,,,,,,262.20151572477187,264.201616727747,262.20545370929176,None,262.20545370929176,None,0.08703703703703704,-0.03611111111111111,1,0,0,6.435606523999013,0.002483918855432421,None,,1,001,2020_Jul_02_2249,sonority,2020.1.3,59.97649344130563,
autoConditions/train1Block3Condition.xlsx,wavaudio/pakito1.wav,pngimages/20_pizza.png,1,2,11,2,0,0,0,0,,,268.66717602389394,270.6826681860839,268.66734971129335,None,,,,,,,,,,,,,,,,1,001,2020_Jul_02_2249,sonority,2020.1.3,59.97649344130563,
autoConditions/train1Block3Condition.xlsx,wavaudio/pakito1.wav,pngimages/05_megaphone.png,1,2,11,2,0,1,1,1,,,271.6822643628169,273.6817910646205,271.6842853669077,271.6842853669077,,,,,,,,,,,,,,,,1,001,2020_Jul_02_2249,sonority,2020.1.3,59.97649344130563,
autoConditions/train1Block3Condition.xlsx,wavaudio/pakito1.wav,pngimages/03_box.png,1,2,11,2,0,2,2,2,,,274.6980714278237,276.6977227314492,274.7015325271059,274.7015325271059,,,,,,,,,,,,,,,,1,001,2020_Jul_02_2249,sonority,2020.1.3,59.97649344130563,
autoConditions/train1Block3Condition.xlsx,wavaudio/pakito1.wav,pngimages/16_icecream.png,1,2,11,2,0,3,3,3,,,277.71398459317277,279.7133568642312,277.71536937274504,277.71536937274504,,,,,,,,,,,,,,,,1,001,2020_Jul_02_2249,sonority,2020.1.3,59.97649344130563,
autoConditions/train1Block3Condition.xlsx,wavaudio/pakito1.wav,pngimages/01_gift.png,1,2,11,2,0,4,4,4,,,280.72976484988465,282.7291714808671,280.7343500088318,280.7343500088318,,,,,,,,,,,,,,,,1,001,2020_Jul_02_2249,sonority,2020.1.3,59.97649344130563,
