condFiles,testFiles,audio,imageLoc,audioTrue,imageTrue,audioFalse,imageFalse,truePos,falsePos,train1blocks.thisRepN,train1blocks.thisTrialN,train1blocks.thisN,train1blocks.thisIndex,blockwords1.thisRepN,blockwords1.thisTrialN,blockwords1.thisN,blockwords1.thisIndex,blocktest1.thisRepN,blocktest1.thisTrialN,blocktest1.thisN,blocktest1.thisIndex,instructions.started,instructions.stopped,imagetrain1.started,imagetrain1.stopped,stimuli1train1.started,stimuli1train1.stopped,stimuli2train1.started,stimuli2train1.stopped,stimuli3train1.started,stimuli3train1.stopped,stimuli4train1.started,stimuli4train1.stopped,stimuli5train1.started,stimuli5train1.stopped,listenTrain1.started,listenTrain1.stopped,stimulitest1.started,stimulitest1.stopped,correct.started,correct.stopped,incorrect.started,incorrect.stopped,train1Response.keys,train1Response.started,train1Response.stopped,chooseImageTrain1.started,chooseImageTrain1.stopped,train1F.started,train1F.stopped,train1J.started,train1J.stopped,train1Response.rt,participant,session,date,expName,psychopyVersion,frameRate,
aoiConditions/train1Block1.xlsx,aoiConditions/train1Block1Test.xlsx,trainingaudio/03_kikita3.wav,pngimages/03_box.png,,,,,,,0,0,0,0,0,0,0,0,,,,,20.243700064951554,None,23.612394088413566,None,23.588384671625683,None,25.590956751746127,None,27.59259545223322,None,29.59429834156763,None,31.595989903458396,None,21.58962898910977,32.59679056331515,,,,,,,,,,,,,,,,,delete,001,2020_Jul_31_1110,sonority,2020.1.3,59.89276271875241,
aoiConditions/train1Block1.xlsx,aoiConditions/train1Block1Test.xlsx,trainingaudio/07_pitapi2.wav,pngimages/07_suitcase.png,,,,,,,0,0,0,0,0,1,1,1,,,,,,,34.61526710051112,32.620153373107314,34.6143052135827,None,36.616832361579874,None,38.60154449406546,None,40.603437306382695,None,42.60507940503303,None,32.620153373107314,None,,,,,,,,,,,,,,,,,delete,001,2020_Jul_31_1110,sonority,2020.1.3,59.89276271875241,
aoiConditions/train1Block1.xlsx,aoiConditions/train1Block1Test.xlsx,trainingaudio/06_titoka3.wav,pngimages/06_tent.png,,,,,,,0,0,0,0,0,2,2,2,,,,,,,45.62490711500868,43.63091291463934,45.62346419019159,None,47.62594678371679,None,49.62758926001843,None,51.612552105938086,None,53.61420100114774,None,43.63091291463934,43.63091291463934,,,,,,,,,,,,,,,,,delete,001,2020_Jul_31_1110,sonority,2020.1.3,59.89276271875241,
aoiConditions/train1Block1.xlsx,aoiConditions/train1Block1Test.xlsx,trainingaudio/11_tokiko1.wav,pngimages/11_compass.png,,,,,,,0,0,0,0,0,3,3,3,,,,,,,56.63363904785365,65.64003488840535,56.63239963890519,None,58.63507404343691,None,60.636741817719304,None,62.638489261525685,None,64.64013060510624,None,54.644799957517534,54.644799957517534,,,,,,,,,,,,,,,,,delete,001,2020_Jul_31_1110,sonority,2020.1.3,59.89276271875241,
aoiConditions/train1Block1.xlsx,aoiConditions/train1Block1Test.xlsx,trainingaudio/25_tapapi1.wav,pngimages/25_apple.png,,,,,,,0,0,0,0,0,4,4,4,,,,,,,67.65925072855316,76.66584442160092,67.65829488288145,None,69.66087715772446,None,71.66248678464908,None,73.66443585653323,None,75.66594240374397,None,65.66922792280093,65.66922792280093,,,,,,,,,,,,,,,,,delete,001,2020_Jul_31_1110,sonority,2020.1.3,59.89276271875241,
aoiConditions/train1Block1.xlsx,aoiConditions/train1Block1Test.xlsx,trainingaudio/09_tipata2.wav,pngimages/09_plane.png,,,,,,,0,0,0,0,0,5,5,5,,,,,,,78.70174895389937,None,78.70086371598299,None,80.70338746581692,None,82.70503749374765,None,84.68998032787349,None,86.69159259789157,None,76.70729750324972,76.70729750324972,,,,,,,,,,,,,,,,,delete,001,2020_Jul_31_1110,sonority,2020.1.3,59.89276271875241,
aoiConditions/train1Block1.xlsx,aoiConditions/train1Block1Test.xlsx,,,trainingaudio/06_titoka3.wav,pngimages/06_tent.png,trainingaudio/07_pitapi2.wav,pngimages/07_suitcase.png,-0.5,0.5,0,0,0,0,,,,,0,0,0,0,,,,,,,,,,,,,,,,,87.74251427252311,None,87.73587130522355,None,87.73587130522355,None,None,88.72658319608308,94.73152384045534,87.73587130522355,None,88.72658319608308,94.73152384045534,88.72658319608308,94.73152384045534,,delete,001,2020_Jul_31_1110,sonority,2020.1.3,59.89276271875241,
aoiConditions/train1Block1.xlsx,aoiConditions/train1Block1Test.xlsx,,,trainingaudio/03_kikita3.wav,pngimages/03_box.png,trainingaudio/09_tipata2.wav,pngimages/09_plane.png,0.5,-0.5,0,0,0,0,,,,,0,1,1,1,,,,,,,,,,,,,,,,,94.76485931342467,None,94.77003028197214,94.77003028197214,94.77003028197214,94.77003028197214,j,95.7658168580383,None,94.77003028197214,94.77003028197214,95.7658168580383,None,95.7658168580383,None,0.47872898750938475,delete,001,2020_Jul_31_1110,sonority,2020.1.3,59.89276271875241,
aoiConditions/train1Block1.xlsx,aoiConditions/train1Block1Test.xlsx,,,trainingaudio/25_tapapi1.wav,pngimages/25_apple.png,trainingaudio/11_tokiko1.wav,pngimages/11_compass.png,0.5,-0.5,0,0,0,0,,,,,0,2,2,2,,,,,,,,,,,,,,,,,96.28299791556782,None,96.28939111321233,None,96.28939111321233,None,j,97.28389995614998,None,96.28939111321233,None,97.28389995614998,None,97.28389995614998,None,1.2955638035200536,delete,001,2020_Jul_31_1110,sonority,2020.1.3,59.89276271875241,
aoiConditions/train1Block1.xlsx,aoiConditions/train1Block1Test.xlsx,,,,,,,,,0,0,0,0,,,,,,,,,,,,,,,,,,,,,,,,,,,,,,,,,,,,,,,,,delete,001,2020_Jul_31_1110,sonority,2020.1.3,59.89276271875241,
aoiConditions/train1Block2.xlsx,aoiConditions/train1Block2Test.xlsx,trainingaudio/22_kakoki1.wav,pngimages/22_egg.png,,,,,,,0,1,1,1,0,0,0,0,,,,,,,100.65355076943524,None,100.65243747250642,None,102.65485134629998,None,104.6565032622544,None,106.65830243451055,None,108.65983843316789,None,98.65711135603487,None,,,,,,,,,,,,,,,,,delete,001,2020_Jul_31_1110,sonority,2020.1.3,59.89276271875241,
aoiConditions/train1Block2.xlsx,aoiConditions/train1Block2Test.xlsx,trainingaudio/01_kitipi1.wav,pngimages/01_gift.png,,,,,,,0,1,1,1,0,1,1,1,,,,,,,111.66267010010779,120.66892397031188,111.66154585338663,None,113.66408961501438,None,115.66592276960145,None,117.6674070395762,None,119.66903554534073,None,109.67262841504999,109.67262841504999,,,,,,,,,,,,,,,,,delete,001,2020_Jul_31_1110,sonority,2020.1.3,59.89276271875241,
aoiConditions/train1Block2.xlsx,aoiConditions/train1Block2Test.xlsx,trainingaudio/20_tatito1.wav,pngimages/20_pizza.png,,,,,,,0,1,1,1,0,2,2,2,,,,,,,122.68838637066074,131.6946640284732,122.68748451911378,None,124.69156541188713,None,126.69157145337667,None,128.6932788735954,None,130.6947091494454,None,120.69802563008852,120.69802563008852,,,,,,,,,,,,,,,,,delete,001,2020_Jul_31_1110,sonority,2020.1.3,59.89276271875241,
aoiConditions/train1Block2.xlsx,aoiConditions/train1Block2Test.xlsx,trainingaudio/21_papika1.wav,pngimages/21_cheese.png,,,,,,,0,1,1,1,0,3,3,3,,,,,,,133.73089139256626,142.73742391727865,133.72995971215423,None,135.732313172915,None,137.73381858740467,None,139.73559963589068,None,141.73720057846512,None,131.7406990530435,131.7406990530435,,,,,,,,,,,,,,,,,delete,001,2020_Jul_31_1110,sonority,2020.1.3,59.89276271875241,
aoiConditions/train1Block2.xlsx,aoiConditions/train1Block2Test.xlsx,trainingaudio/18_popata2.wav,pngimages/18_donut.png,,,,,,,0,1,1,1,0,4,4,4,,,,,,,144.75686517334543,None,144.75572733373846,None,146.75836171468254,None,148.75992414404172,None,150.76160815407056,None,152.7631366010988,None,142.75864773220383,142.75864773220383,,,,,,,,,,,,,,,,,delete,001,2020_Jul_31_1110,sonority,2020.1.3,59.89276271875241,
aoiConditions/train1Block2.xlsx,aoiConditions/train1Block2Test.xlsx,trainingaudio/10_tokiti1.wav,pngimages/10_backpack.png,,,,,,,0,1,1,1,0,5,5,5,,,,,,,155.7659539198503,153.77269222633913,155.76487800364848,None,157.76743498051073,None,159.76913107328582,None,161.75414451516698,None,163.75549889730755,None,153.77269222633913,153.77269222633913,,,,,,,,,,,,,,,,,delete,001,2020_Jul_31_1110,sonority,2020.1.3,59.89276271875241,
aoiConditions/train1Block2.xlsx,aoiConditions/train1Block2Test.xlsx,,,trainingaudio/20_tatito1.wav,pngimages/20_pizza.png,trainingaudio/01_kitipi1.wav,pngimages/01_gift.png,0.5,-0.5,0,1,1,1,,,,,0,0,0,0,,,,,,,,,,,,,,,,,164.80681665434966,None,164.79831334669143,None,164.79831334669143,None,f,165.79075078153983,None,164.79831334669143,None,165.79075078153983,None,165.79075078153983,None,4.495697467355058,delete,001,2020_Jul_31_1110,sonority,2020.1.3,59.89276271875241,
aoiConditions/train1Block2.xlsx,aoiConditions/train1Block2Test.xlsx,,,trainingaudio/22_kakoki1.wav,pngimages/22_egg.png,trainingaudio/10_tokiti1.wav,pngimages/10_backpack.png,-0.5,0.5,0,1,1,1,,,,,0,1,1,1,,,,,,,,,,,,,,,,,170.3445747306803,None,170.340599371586,None,170.340599371586,None,j,171.32880639168434,None,170.340599371586,None,171.32880639168434,None,171.32880639168434,None,2.4816488195210695,delete,001,2020_Jul_31_1110,sonority,2020.1.3,59.89276271875241,
aoiConditions/train1Block2.xlsx,aoiConditions/train1Block2Test.xlsx,,,trainingaudio/18_popata2.wav,pngimages/18_donut.png,trainingaudio/21_papika1.wav,pngimages/21_cheese.png,-0.5,0.5,0,1,1,1,,,,,0,2,2,2,,,,,,,,,,,,,,,,,173.8640650721034,None,173.85584457265213,None,173.85584457265213,None,f,174.84830088657327,None,173.85584457265213,None,174.84830088657327,None,174.84830088657327,None,1.6529987463727593,delete,001,2020_Jul_31_1110,sonority,2020.1.3,59.89276271875241,
aoiConditions/train1Block2.xlsx,aoiConditions/train1Block2Test.xlsx,,,,,,,,,0,1,1,1,,,,,,,,,,,,,,,,,,,,,,,,,,,,,,,,,,,,,,,,,delete,001,2020_Jul_31_1110,sonority,2020.1.3,59.89276271875241,
