firstAudio,secondAudio,imageLoc,whichAudio,train1blocks.thisRepN,train1blocks.thisTrialN,train1blocks.thisN,train1blocks.thisIndex,train2blocks.thisRepN,train2blocks.thisTrialN,train2blocks.thisN,train2blocks.thisIndex,test1Loop.thisRepN,test1Loop.thisTrialN,test1Loop.thisN,test1Loop.thisIndex,test2Loop.thisRepN,test2Loop.thisTrialN,test2Loop.thisN,test2Loop.thisIndex,test3Loop.thisRepN,test3Loop.thisTrialN,test3Loop.thisN,test3Loop.thisIndex,instructions.started,instructions.stopped,train2warning10.started,train2warning10.stopped,train2warning5.started,train2warning5.stopped,train2warning4.started,train2warning4.stopped,train2warning3.started,train2warning3.stopped,train2warning2.started,train2warning2.stopped,train2warning1.started,train2warning1.stopped,skipTrain2Instr.keys,skipTrain2Instr.rt,skipTrain2Instr.started,skipTrain2Instr.stopped,skipTest1Instr.keys,skipTest1Instr.rt,skipTest1Instr.started,skipTest1Instr.stopped,test1warning10.started,test1warning10.stopped,test1warning5.started,test1warning5.stopped,test1warning4.started,test1warning4.stopped,test1warning3.started,test1warning3.stopped,test1warning2.started,test1warning2.stopped,test1warning1.started,test1warning1.stopped,test1Audio1.started,test1Audio1.stopped,test1Audio1Sound.started,test1Audio1Sound.stopped,test1Audio1Mute.started,test1Audio1Mute.stopped,test1Audio2.started,test1Audio2.stopped,test1Audio2Mute1.started,test1Audio2Mute1.stopped,test1Audio2Sound.started,test1Audio2Sound.stopped,test1Audio2Mute2.started,test1Audio2Mute2.stopped,test1Response.keys,test1Response.rt,test1Response.started,test1Response.stopped,test1Image.started,test1Image.stopped,test1F.started,test1F.stopped,test1J.started,test1J.stopped,skipTest2Instr.keys,skipTest2Instr.rt,skipTest2Instr.started,skipTest2Instr.stopped,test2warning10.started,test2warning10.stopped,test2warning5.started,test2warning5.stopped,test2warning4.started,test2warning4.stopped,test2warning3.started,test2warning3.stopped,test2warning2.started,test2warning2.stopped,test2warning1.started,test2warning1.stopped,test2Audio1.started,test2Audio1.stopped,test2Audio1Sound.started,test2Audio1Sound.stopped,test1Audio2Mute.started,test1Audio2Mute.stopped,test2Audio2.started,test2Audio2.stopped,test2Audio2Mute1.started,test2Audio2Mute1.stopped,test2Audio2Sound.started,test2Audio2Sound.stopped,test2Audio2Mute2.started,test2Audio2Mute2.stopped,test2Response.keys,test2Response.rt,test2Response.started,test2Response.stopped,test2Image.started,test2Image.stopped,test2F.started,test2F.stopped,test2J.started,test2J.stopped,skipTest3Instr.keys,skipTest3Instr.rt,skipTest3Instr.started,skipTest3Instr.stopped,test3warning10.started,test3warning10.stopped,test3warning5.started,test3warning5.stopped,test3warning4.started,test3warning4.stopped,test3warning3.started,test3warning3.stopped,test3warning2.started,test3warning2.stopped,test3warning1.started,test3warning1.stopped,participant,session,date,expName,psychopyVersion,frameRate,
,,,,,,,,,,,,,,,,,,,,,,,,24.15571317449212,None,51.180455286987126,None,None,None,None,None,None,None,None,None,None,None,h,1.1963571007363498,51.180455286987126,None,,,,,,,,,,,,,,,,,,,,,,,,,,,,,,,,,,,,,,,,,,,,,,,,,,,,,,,,,,,,,,,,,,,,,,,,,,,,,,,,,,,,,,,,,,,,,,,,,delete,001,2020_Aug_06_2144,sonority,2020.1.3,59.420832865226416,
,,,,,,,,,,,,,,,,,,,,,,,,,,,,,,,,,,,,,,,,,,h,0.9827928892336786,52.424209345830604,None,,,,,,,,,,,,,,,,,,,,,,,,,,,,,,,,,,,,,,,,,,,,,,,,,,,,,,,,,,,,,,,,,,,,,,,,,,,,,,,,,,,,,,,,,,,,,delete,001,2020_Aug_06_2144,sonority,2020.1.3,59.420832865226416,
trainingaudio/20_tatito3.wav,trainingaudio/20_tatito1.wav,pngimages/20_pizza.png,2,,,,,,,,,0,0,0,0,,,,,,,,,,,,,,,,,,,,,,,,,,,,,,,52.424209345830604,None,None,None,None,None,None,None,None,None,None,None,53.617025796370584,None,53.68330564419739,54.71290231239982,54.64654777920805,None,54.637130499607885,None,53.68330564419739,54.71290231239982,54.64654777920805,55.671286115655676,55.62518425937742,None,f,0.6370165077969432,55.62518425937742,None,53.68330564419739,None,53.68330564419739,None,53.68330564419739,None,,,,,,,,,,,,,,,,,,,,,,,,,,,,,,,,,,,,,,,,,,,,,,,,,,,,,,,,,delete,001,2020_Aug_06_2144,sonority,2020.1.3,59.420832865226416,
trainingaudio/14_pokoto1.wav,trainingaudio/14_pokoto2.wav,pngimages/14_coffee.png,1,,,,,,,,,0,1,1,1,,,,,,,,,,,,,,,,,,,,,,,,,,,,,,,,,,,,,,,,,,,56.381675779027866,None,56.38215100206435,57.416448173346,57.36410906049423,None,57.36973875181284,None,56.38215100206435,57.416448173346,57.36410906049423,58.38315649982542,58.38315649982542,None,j,0.20291983196511865,58.38315649982542,None,56.38215100206435,None,56.38215100206435,None,56.38215100206435,None,,,,,,,,,,,,,,,,,,,,,,,,,,,,,,,,,,,,,,,,,,,,,,,,,,,,,,,,,delete,001,2020_Aug_06_2144,sonority,2020.1.3,59.420832865226416,
trainingaudio/24_takopa3.wav,trainingaudio/24_takopa1.wav,pngimages/24_banana.png,2,,,,,,,,,0,2,2,2,,,,,,,,,,,,,,,,,,,,,,,,,,,,,,,,,,,,,,,,,,,58.78725623388309,None,58.77893061586656,59.78718000045046,59.77102218661457,None,59.77217603570316,None,58.77893061586656,59.78718000045046,59.77102218661457,60.79235361190513,60.76735927560367,None,j,0.3185875457711518,60.76735927560367,None,58.77893061586656,None,58.77893061586656,None,58.77893061586656,None,,,,,,,,,,,,,,,,,,,,,,,,,,,,,,,,,,,,,,,,,,,,,,,,,,,,,,,,,delete,001,2020_Aug_06_2144,sonority,2020.1.3,59.420832865226416,
trainingaudio/26_kapako1.wav,trainingaudio/26_kapako2.wav,pngimages/26_pineapple.png,1,,,,,,,,,0,3,3,3,,,,,,,,,,,,,,,,,,,,,,,,,,,,,,,,,,,,,,,,,,,61.21802242069971,None,61.216664149425924,62.22695058234967,62.204857198987156,None,62.20085518273991,None,61.216664149425924,62.22695058234967,62.204857198987156,63.21976219979115,63.21976219979115,None,j,0.24587379745207727,63.21976219979115,None,61.216664149425924,None,61.216664149425924,None,61.216664149425924,None,,,,,,,,,,,,,,,,,,,,,,,,,,,,,,,,,,,,,,,,,,,,,,,,,,,,,,,,,delete,001,2020_Aug_06_2144,sonority,2020.1.3,59.420832865226416,
trainingaudio/19_papipi2.wav,trainingaudio/19_papipi1.wav,pngimages/19_burger.png,2,,,,,,,,,0,4,4,4,,,,,,,,,,,,,,,,,,,,,,,,,,,,,,,,,,,,,,,,,,,63.553300999919884,None,63.56160570005886,64.57346211350523,64.57346211350523,None,64.57013634454924,None,63.56160570005886,64.57346211350523,64.57346211350523,65.59122804366052,65.57773368479684,None,j,0.08785322681069374,65.57773368479684,None,63.56160570005886,None,63.56160570005886,None,63.56160570005886,None,,,,,,,,,,,,,,,,,,,,,,,,,,,,,,,,,,,,,,,,,,,,,,,,,,,,,,,,,delete,001,2020_Aug_06_2144,sonority,2020.1.3,59.420832865226416,
trainingaudio/15_kopota3.wav,trainingaudio/15_kopota1.wav,pngimages/15_barrel.png,1,,,,,,,,,0,5,5,5,,,,,,,,,,,,,,,,,,,,,,,,,,,,,,,,,,,,,,,,,,,65.8303174697794,None,65.83115796465427,66.84484640019946,66.82223044522107,None,66.82887658409308,None,65.83115796465427,66.84484640019946,66.82223044522107,67.82862817356363,67.82862817356363,None,j,0.15139138512313366,67.82862817356363,None,65.83115796465427,None,65.83115796465427,None,65.83115796465427,None,,,,,,,,,,,,,,,,,,,,,,,,,,,,,,,,,,,,,,,,,,,,,,,,,,,,,,,,,delete,001,2020_Aug_06_2144,sonority,2020.1.3,59.420832865226416,
trainingaudio/04_kitoti2.wav,trainingaudio/04_kitoti1.wav,pngimages/04_ladder.png,1,,,,,,,,,0,6,6,6,,,,,,,,,,,,,,,,,,,,,,,,,,,,,,,,,,,,,,,,,,,68.08012807546183,None,68.07664851774462,69.11248319759034,69.0543833351694,None,69.06158527291845,None,68.07664851774462,69.11248319759034,69.0543833351694,70.07648804574274,70.07648804574274,None,j,0.06567602069117129,70.07648804574274,None,68.07664851774462,None,68.07664851774462,None,68.07664851774462,None,,,,,,,,,,,,,,,,,,,,,,,,,,,,,,,,,,,,,,,,,,,,,,,,,,,,,,,,,delete,001,2020_Aug_06_2144,sonority,2020.1.3,59.420832865226416,
trainingaudio/16_kokapi2.wav,trainingaudio/16_kokapi1.wav,pngimages/16_icecream.png,1,,,,,,,,,0,7,7,7,,,,,,,,,,,,,,,,,,,,,,,,,,,,,,,,,,,,,,,,,,,70.24719774667173,None,70.24983348697424,71.25789408106357,71.22416365868412,None,71.23069539063144,None,70.24983348697424,71.25789408106357,71.22416365868412,72.22331447945908,72.22331447945908,None,j,0.22473682626150548,72.22331447945908,None,70.24983348697424,None,70.24983348697424,None,70.24983348697424,None,,,,,,,,,,,,,,,,,,,,,,,,,,,,,,,,,,,,,,,,,,,,,,,,,,,,,,,,,delete,001,2020_Aug_06_2144,sonority,2020.1.3,59.420832865226416,
trainingaudio/25_tapapi1.wav,trainingaudio/25_tapapi2.wav,pngimages/25_apple.png,1,,,,,,,,,0,8,8,8,,,,,,,,,,,,,,,,,,,,,,,,,,,,,,,,,,,,,,,,,,,72.52966935245786,None,72.53203319688328,73.53699649614282,73.51458443468437,None,73.50635464654769,None,72.53203319688328,73.53699649614282,73.51458443468437,74.51941407029517,74.51941407029517,None,j,0.41820618929341435,74.51941407029517,None,72.53203319688328,None,72.53203319688328,None,72.53203319688328,None,,,,,,,,,,,,,,,,,,,,,,,,,,,,,,,,,,,,,,,,,,,,,,,,,,,,,,,,,delete,001,2020_Aug_06_2144,sonority,2020.1.3,59.420832865226416,
trainingaudio/06_titoka2.wav,trainingaudio/06_titoka3.wav,pngimages/06_tent.png,2,,,,,,,,,0,9,9,9,,,,,,,,,,,,,,,,,,,,,,,,,,,,,,,,,,,,,,,,,,,75.03455902345013,None,75.03785473713651,76.04661007993855,76.02134803892113,None,76.0135804096004,None,75.03785473713651,76.04661007993855,76.02134803892113,77.04832052090205,77.02402772963978,None,j,0.7727330052293837,77.02402772963978,None,75.03785473713651,None,75.03785473713651,None,75.03785473713651,None,,,,,,,,,,,,,,,,,,,,,,,,,,,,,,,,,,,,,,,,,,,,,,,,,,,,,,,,,delete,001,2020_Aug_06_2144,sonority,2020.1.3,59.420832865226416,
trainingaudio/18_popata2.wav,trainingaudio/18_popata1.wav,pngimages/18_donut.png,1,,,,,,,,,0,10,10,10,,,,,,,,,,,,,,,,,,,,,,,,,,,,,,,,,,,,,,,,,,,77.90844285688362,None,77.9152244341094,78.92084510135464,78.92084510135464,None,78.91651081389281,None,77.9152244341094,78.92084510135464,78.92084510135464,79.94179403735325,79.91725883912295,None,None,,79.91725883912295,None,77.9152244341094,None,77.9152244341094,None,77.9152244341094,None,,,,,,,,,,,,,,,,,,,,,,,,,,,,,,,,,,,,,,,,,,,,,,,,,,,,,,,,,delete,001,2020_Aug_06_2144,sonority,2020.1.3,59.420832865226416,
trainingaudio/12_pokika1.wav,trainingaudio/12_pokika3.wav,pngimages/12_pie.png,2,,,,,,,,,0,11,11,11,,,,,,,,,,,,,,,,,,,,,,,,,,,,,,,,,,,,,,,,,,,88.06439379414077,None,88.05806248215958,89.05460837320425,89.04756837990135,88.05806248215958,89.03997330509591,None,88.05806248215958,89.05460837320425,89.04756837990135,90.05359796714038,90.05359796714038,88.05806248215958,f,0.5539460964500904,90.05359796714038,88.05806248215958,88.05806248215958,88.05806248215958,88.05806248215958,88.05806248215958,88.05806248215958,88.05806248215958,,,,,,,,,,,,,,,,,,,,,,,,,,,,,,,,,,,,,,,,,,,,,,,,,,,,,,,,,delete,001,2020_Aug_06_2144,sonority,2020.1.3,59.420832865226416,
trainingaudio/13_kopopi1.wav,trainingaudio/13_kopopi2.wav,pngimages/13_toast.png,1,,,,,,,,,0,12,12,12,,,,,,,,,,,,,,,,,,,,,,,,,,,,,,,,,,,,,,,,,,,90.71237913649529,None,90.71222719782963,91.72707442869432,91.70484624919482,None,91.69608747030142,None,90.71222719782963,91.72707442869432,91.70484624919482,92.71615554811433,92.71615554811433,None,j,0.30495197186246514,92.71615554811433,None,90.71222719782963,None,90.71222719782963,None,90.71222719782963,None,,,,,,,,,,,,,,,,,,,,,,,,,,,,,,,,,,,,,,,,,,,,,,,,,,,,,,,,,delete,001,2020_Aug_06_2144,sonority,2020.1.3,59.420832865226416,
trainingaudio/23_patoko2.wav,trainingaudio/23_patoko1.wav,pngimages/23_lemon.png,2,,,,,,,,,0,13,13,13,,,,,,,,,,,,,,,,,,,,,,,,,,,,,,,,,,,,,,,,,,,93.12751144068315,None,93.13601138792001,94.16317228251137,94.13801067811437,None,94.13125987376552,None,93.13601138792001,94.16317228251137,94.13801067811437,95.15478772413917,95.13034918671474,None,j,0.09816797822713852,95.13034918671474,None,93.13601138792001,None,93.13601138792001,None,93.13601138792001,None,,,,,,,,,,,,,,,,,,,,,,,,,,,,,,,,,,,,,,,,,,,,,,,,,,,,,,,,,delete,001,2020_Aug_06_2144,sonority,2020.1.3,59.420832865226416,
trainingaudio/08_tipako2.wav,trainingaudio/08_tipako1.wav,pngimages/08_bell.png,1,,,,,,,,,0,14,14,14,,,,,,,,,,,,,,,,,,,,,,,,,,,,,,,,,,,,,,,,,,,95.31164364691358,None,95.30722009949386,96.33216119674034,96.30584532790817,None,96.29909716665279,None,95.30722009949386,96.33216119674034,96.30584532790817,97.32263256865554,97.30107119656168,None,f,0.36480947281233966,97.30107119656168,None,95.30722009949386,None,95.30722009949386,None,95.30722009949386,None,,,,,,,,,,,,,,,,,,,,,,,,,,,,,,,,,,,,,,,,,,,,,,,,,,,,,,,,,delete,001,2020_Aug_06_2144,sonority,2020.1.3,59.420832865226416,
trainingaudio/09_tipata2.wav,trainingaudio/09_tipata3.wav,pngimages/09_plane.png,1,,,,,,,,,0,15,15,15,,,,,,,,,,,,,,,,,,,,,,,,,,,,,,,,,,,,,,,,,,,97.81450748369097,None,97.81233707396314,98.84900696272962,98.78868503728881,None,98.79822646549437,None,97.81233707396314,98.84900696272962,98.78868503728881,99.80359872221015,99.80359872221015,None,f,0.415093791205436,99.80359872221015,None,97.81233707396314,None,97.81233707396314,None,97.81233707396314,None,,,,,,,,,,,,,,,,,,,,,,,,,,,,,,,,,,,,,,,,,,,,,,,,,,,,,,,,,delete,001,2020_Aug_06_2144,sonority,2020.1.3,59.420832865226416,
trainingaudio/21_papika1.wav,trainingaudio/21_papika3.wav,pngimages/21_cheese.png,1,,,,,,,,,0,16,16,16,,,,,,,,,,,,,,,,,,,,,,,,,,,,,,,,,,,,,,,,,,,100.33483382679987,None,100.34048420959152,101.35902946651913,101.33658191235736,None,101.33400903923902,None,100.34048420959152,101.35902946651913,101.33658191235736,102.35677795228548,102.33509915275499,None,f,0.02424521604552865,102.33509915275499,None,100.34048420959152,None,100.34048420959152,None,100.34048420959152,None,,,,,,,,,,,,,,,,,,,,,,,,,,,,,,,,,,,,,,,,,,,,,,,,,,,,,,,,,delete,001,2020_Aug_06_2144,sonority,2020.1.3,59.420832865226416,
trainingaudio/10_tokiti1.wav,trainingaudio/10_tokiti3.wav,pngimages/10_backpack.png,1,,,,,,,,,0,17,17,17,,,,,,,,,,,,,,,,,,,,,,,,,,,,,,,,,,,,,,,,,,,102.45447754149791,None,102.45425080438145,103.49058162537403,103.45751347974874,None,103.44504836809355,None,102.45425080438145,103.49058162537403,103.45751347974874,104.47164481738582,104.44875285075977,None,f,0.47148963157087564,104.44875285075977,None,102.45425080438145,None,102.45425080438145,None,102.45425080438145,None,,,,,,,,,,,,,,,,,,,,,,,,,,,,,,,,,,,,,,,,,,,,,,,,,,,,,,,,,delete,001,2020_Aug_06_2144,sonority,2020.1.3,59.420832865226416,
trainingaudio/05_titopo1.wav,trainingaudio/05_titopo2.wav,pngimages/05_megaphone.png,2,,,,,,,,,0,18,18,18,,,,,,,,,,,,,,,,,,,,,,,,,,,,,,,,,,,,,,,,,,,105.00351961900014,None,105.0112688979134,106.02944752387702,106.00688782846555,None,106.00563535515684,None,105.0112688979134,106.02944752387702,106.00688782846555,107.02351421979256,107.02351421979256,None,j,0.08366774418391287,107.02351421979256,None,105.0112688979134,None,105.0112688979134,None,105.0112688979134,None,,,,,,,,,,,,,,,,,,,,,,,,,,,,,,,,,,,,,,,,,,,,,,,,,,,,,,,,,delete,001,2020_Aug_06_2144,sonority,2020.1.3,59.420832865226416,
trainingaudio/07_pitapi2.wav,trainingaudio/07_pitapi3.wav,pngimages/07_suitcase.png,1,,,,,,,,,0,19,19,19,,,,,,,,,,,,,,,,,,,,,,,,,,,,,,,,,,,,,,,,,,,107.1941031323513,None,107.18906790413894,108.19259601878002,108.17798477597535,None,108.17350247690919,None,107.18906790413894,108.19259601878002,108.17798477597535,109.19334476138465,109.18145700870082,None,f,0.5089290298055857,109.18145700870082,None,107.18906790413894,None,107.18906790413894,None,107.18906790413894,None,,,,,,,,,,,,,,,,,,,,,,,,,,,,,,,,,,,,,,,,,,,,,,,,,,,,,,,,,delete,001,2020_Aug_06_2144,sonority,2020.1.3,59.420832865226416,
trainingaudio/17_kotako1.wav,trainingaudio/17_kotako2.wav,pngimages/17_cracker.png,2,,,,,,,,,0,20,20,20,,,,,,,,,,,,,,,,,,,,,,,,,,,,,,,,,,,,,,,,,,,109.77311643830035,None,109.77156061679125,110.79122389038093,110.76710138795897,None,110.76091657744254,None,109.77156061679125,110.79122389038093,110.76710138795897,111.78241530875675,111.75596615369432,None,j,0.3692041353788227,111.75596615369432,None,109.77156061679125,None,109.77156061679125,None,109.77156061679125,None,,,,,,,,,,,,,,,,,,,,,,,,,,,,,,,,,,,,,,,,,,,,,,,,,,,,,,,,,delete,001,2020_Aug_06_2144,sonority,2020.1.3,59.420832865226416,
trainingaudio/11_tokiko2.wav,trainingaudio/11_tokiko1.wav,pngimages/11_compass.png,2,,,,,,,,,0,21,21,21,,,,,,,,,,,,,,,,,,,,,,,,,,,,,,,,,,,,,,,,,,,112.21652236778755,None,112.21342450659722,113.23033370589837,113.22025569784455,None,113.20233341145794,None,112.21342450659722,113.23033370589837,113.22025569784455,114.23457809118554,114.21343470131978,None,j,0.25488060899078846,114.21343470131978,None,112.21342450659722,None,112.21342450659722,None,112.21342450659722,None,,,,,,,,,,,,,,,,,,,,,,,,,,,,,,,,,,,,,,,,,,,,,,,,,,,,,,,,,delete,001,2020_Aug_06_2144,sonority,2020.1.3,59.420832865226416,
trainingaudio/02_pitito3.wav,trainingaudio/02_pitito2.wav,pngimages/02_pallet.png,1,,,,,,,,,0,22,22,22,,,,,,,,,,,,,,,,,,,,,,,,,,,,,,,,,,,,,,,,,,,114.53558079465292,None,114.54171550041065,115.57021189830266,115.54992637177929,None,115.53775539577472,None,114.54171550041065,115.57021189830266,115.54992637177929,116.55450944718905,116.55450944718905,None,f,0.13604159420356154,116.55450944718905,None,114.54171550041065,None,114.54171550041065,None,114.54171550041065,None,,,,,,,,,,,,,,,,,,,,,,,,,,,,,,,,,,,,,,,,,,,,,,,,,,,,,,,,,delete,001,2020_Aug_06_2144,sonority,2020.1.3,59.420832865226416,
trainingaudio/03_kikita2.wav,trainingaudio/03_kikita3.wav,pngimages/03_box.png,2,,,,,,,,,0,23,23,23,,,,,,,,,,,,,,,,,,,,,,,,,,,,,,,,,,,,,,,,,,,116.7837887586793,None,116.77884150668979,117.79117895825766,117.77007143828087,None,117.7650476885261,None,116.77884150668979,117.79117895825766,117.77007143828087,118.78437533043325,118.78437533043325,None,f,0.7965489118359983,118.78437533043325,None,116.77884150668979,None,116.77884150668979,None,116.77884150668979,None,,,,,,,,,,,,,,,,,,,,,,,,,,,,,,,,,,,,,,,,,,,,,,,,,,,,,,,,,delete,001,2020_Aug_06_2144,sonority,2020.1.3,59.420832865226416,
trainingaudio/01_kitipi1.wav,trainingaudio/01_kitipi3.wav,pngimages/01_gift.png,1,,,,,,,,,0,24,24,24,,,,,,,,,,,,,,,,,,,,,,,,,,,,,,,,,,,,,,,,,,,119.68199940340128,None,119.68237339728512,120.69144326471724,120.66912786406465,None,120.66831300689373,None,119.68237339728512,120.69144326471724,120.66912786406465,121.67496224190108,121.67496224190108,None,f,0.3998871031217277,121.67496224190108,None,119.68237339728512,None,119.68237339728512,None,119.68237339728512,None,,,,,,,,,,,,,,,,,,,,,,,,,,,,,,,,,,,,,,,,,,,,,,,,,,,,,,,,,delete,001,2020_Aug_06_2144,sonority,2020.1.3,59.420832865226416,
trainingaudio/27_pakapa1.wav,trainingaudio/27_pakapa2.wav,pngimages/27_kiwi.png,1,,,,,,,,,0,25,25,25,,,,,,,,,,,,,,,,,,,,,,,,,,,,,,,,,,,,,,,,,,,122.15681854228023,None,122.17283948301338,123.18991481792182,123.16877784673125,None,123.1557943166932,None,122.17283948301338,123.18991481792182,123.16877784673125,124.17233239184134,124.17233239184134,None,f,0.26356383389793336,124.17233239184134,None,122.17283948301338,None,122.17283948301338,None,122.17283948301338,None,,,,,,,,,,,,,,,,,,,,,,,,,,,,,,,,,,,,,,,,,,,,,,,,,,,,,,,,,delete,001,2020_Aug_06_2144,sonority,2020.1.3,59.420832865226416,
trainingaudio/22_kakoki2.wav,trainingaudio/22_kakoki1.wav,pngimages/22_egg.png,2,,,,,,,,,0,26,26,26,,,,,,,,,,,,,,,,,,,,,,,,,,,,,,,,,,,,,,,,,,,124.55283008113037,None,124.56761112203822,125.58253198117018,125.55669110873714,None,125.55593477680813,None,124.56761112203822,125.58253198117018,125.55669110873714,126.57642347947694,126.57642347947694,None,j,0.14338176441378891,126.57642347947694,None,124.56761112203822,None,124.56761112203822,None,124.56761112203822,None,,,,,,,,,,,,,,,,,,,,,,,,,,,,,,,,,,,,,,,,,,,,,,,,,,,,,,,,,delete,001,2020_Aug_06_2144,sonority,2020.1.3,59.420832865226416,
trainingaudio/12_pokika3.wav,trainingaudio/12_pokika2.wav,pngimages/12_pie.png,1,,,,,,,,,0,27,27,27,,,,,,,,,,,,,,,,,,,,,,,,,,,,,,,,,,,,,,,,,,,126.87014510433654,None,126.87208281108178,127.88056931621395,127.85644303821027,None,127.86250128389801,None,126.87208281108178,127.88056931621395,127.85644303821027,128.87725415709428,128.87725415709428,None,f,0.20550701534375548,128.87725415709428,None,126.87208281108178,None,126.87208281108178,None,126.87208281108178,None,,,,,,,,,,,,,,,,,,,,,,,,,,,,,,,,,,,,,,,,,,,,,,,,,,,,,,,,,delete,001,2020_Aug_06_2144,sonority,2020.1.3,59.420832865226416,
trainingaudio/26_kapako1.wav,trainingaudio/26_kapako3.wav,pngimages/26_pineapple.png,1,,,,,,,,,0,28,28,28,,,,,,,,,,,,,,,,,,,,,,,,,,,,,,,,,,,,,,,,,,,129.19738347867968,None,129.1881405657623,130.2128233979456,130.18256407557055,None,130.17788316893856,None,129.1881405657623,130.2128233979456,130.18256407557055,131.20040212362073,131.17887662164867,None,j,0.3847717901226133,131.17887662164867,None,129.1881405657623,None,129.1881405657623,None,129.1881405657623,None,,,,,,,,,,,,,,,,,,,,,,,,,,,,,,,,,,,,,,,,,,,,,,,,,,,,,,,,,delete,001,2020_Aug_06_2144,sonority,2020.1.3,59.420832865226416,
trainingaudio/03_kikita3.wav,trainingaudio/03_kikita2.wav,pngimages/03_box.png,1,,,,,,,,,0,29,29,29,,,,,,,,,,,,,,,,,,,,,,,,,,,,,,,,,,,,,,,,,,,131.6630097340094,None,131.66154981800355,132.67037085979246,132.67037085979246,None,132.6628573425347,None,131.66154981800355,132.67037085979246,132.67037085979246,133.69052498834208,133.65267855790444,None,j,0.33325316035188735,133.65267855790444,None,131.66154981800355,None,131.66154981800355,None,131.66154981800355,None,,,,,,,,,,,,,,,,,,,,,,,,,,,,,,,,,,,,,,,,,,,,,,,,,,,,,,,,,delete,001,2020_Aug_06_2144,sonority,2020.1.3,59.420832865226416,
trainingaudio/25_tapapi3.wav,trainingaudio/25_tapapi1.wav,pngimages/25_apple.png,2,,,,,,,,,0,30,30,30,,,,,,,,,,,,,,,,,,,,,,,,,,,,,,,,,,,,,,,,,,,134.09667407989036,None,134.08877301355824,135.11267538624816,135.08807146851905,None,135.0821660675807,None,134.08877301355824,135.11267538624816,135.08807146851905,136.10724690766074,136.08062444301322,None,f,0.1304394283797592,136.08062444301322,None,134.08877301355824,None,134.08877301355824,None,134.08877301355824,None,,,,,,,,,,,,,,,,,,,,,,,,,,,,,,,,,,,,,,,,,,,,,,,,,,,,,,,,,delete,001,2020_Aug_06_2144,sonority,2020.1.3,59.420832865226416,
trainingaudio/16_kokapi2.wav,trainingaudio/16_kokapi1.wav,pngimages/16_icecream.png,1,,,,,,,,,0,31,31,31,,,,,,,,,,,,,,,,,,,,,,,,,,,,,,,,,,,,,,,,,,,136.31621766032185,None,136.31262705591507,137.33244136185385,137.30266081169248,None,137.2983250140911,None,136.31262705591507,137.33244136185385,137.30266081169248,138.31780897430144,138.31780897430144,None,f,0.1667268278542906,138.31780897430144,None,136.31262705591507,None,136.31262705591507,None,136.31262705591507,None,,,,,,,,,,,,,,,,,,,,,,,,,,,,,,,,,,,,,,,,,,,,,,,,,,,,,,,,,delete,001,2020_Aug_06_2144,sonority,2020.1.3,59.420832865226416,
trainingaudio/11_tokiko2.wav,trainingaudio/11_tokiko1.wav,pngimages/11_compass.png,2,,,,,,,,,0,32,32,32,,,,,,,,,,,,,,,,,,,,,,,,,,,,,,,,,,,,,,,,,,,138.56612326495815,None,138.57255214406177,139.58966523688287,139.56966553907841,None,139.56502088021952,None,138.57255214406177,139.58966523688287,139.56966553907841,140.57608554465696,140.55330760753714,None,f,0.21841348125599325,140.55330760753714,None,138.57255214406177,None,138.57255214406177,None,138.57255214406177,None,,,,,,,,,,,,,,,,,,,,,,,,,,,,,,,,,,,,,,,,,,,,,,,,,,,,,,,,,delete,001,2020_Aug_06_2144,sonority,2020.1.3,59.420832865226416,
trainingaudio/19_papipi2.wav,trainingaudio/19_papipi1.wav,pngimages/19_burger.png,2,,,,,,,,,0,33,33,33,,,,,,,,,,,,,,,,,,,,,,,,,,,,,,,,,,,,,,,,,,,140.88452462586574,None,140.88739861967042,141.9083483107388,141.8863836824894,None,141.88144564351532,None,140.88739861967042,141.9083483107388,141.8863836824894,142.91147014847957,142.885210161563,None,j,0.1714643337763846,142.885210161563,None,140.88739861967042,None,140.88739861967042,None,140.88739861967042,None,,,,,,,,,,,,,,,,,,,,,,,,,,,,,,,,,,,,,,,,,,,,,,,,,,,,,,,,,delete,001,2020_Aug_06_2144,sonority,2020.1.3,59.420832865226416,
trainingaudio/20_tatito3.wav,trainingaudio/20_tatito1.wav,pngimages/20_pizza.png,2,,,,,,,,,0,34,34,34,,,,,,,,,,,,,,,,,,,,,,,,,,,,,,,,,,,,,,,,,,,143.18830337859688,None,143.1811772212386,144.20769962691702,144.15386755974032,None,144.15841661512385,None,143.1811772212386,144.20769962691702,144.15386755974032,145.1717282626778,145.1717282626778,None,f,0.24564120778813958,145.1717282626778,None,143.1811772212386,None,143.1811772212386,None,143.1811772212386,None,,,,,,,,,,,,,,,,,,,,,,,,,,,,,,,,,,,,,,,,,,,,,,,,,,,,,,,,,delete,001,2020_Aug_06_2144,sonority,2020.1.3,59.420832865226416,
trainingaudio/04_kitoti2.wav,trainingaudio/04_kitoti3.wav,pngimages/04_ladder.png,1,,,,,,,,,0,35,35,35,,,,,,,,,,,,,,,,,,,,,,,,,,,,,,,,,,,,,,,,,,,145.51064116985071,None,145.5079854556825,146.52345569478348,146.5130726012867,None,146.5051078747725,None,145.5079854556825,146.52345569478348,146.5130726012867,147.52968917554244,147.50773776276037,None,f,0.743393847020343,147.50773776276037,None,145.5079854556825,None,145.5079854556825,None,145.5079854556825,None,,,,,,,,,,,,,,,,,,,,,,,,,,,,,,,,,,,,,,,,,,,,,,,,,,,,,,,,,delete,001,2020_Aug_06_2144,sonority,2020.1.3,59.420832865226416,
trainingaudio/13_kopopi2.wav,trainingaudio/13_kopopi1.wav,pngimages/13_toast.png,2,,,,,,,,,0,36,36,36,,,,,,,,,,,,,,,,,,,,,,,,,,,,,,,,,,,,,,,,,,,148.3396019920474,None,148.34471802273765,149.35457892203704,149.35457892203704,None,149.3610929076327,None,148.34471802273765,149.35457892203704,149.35457892203704,150.36583422706462,150.3435682891868,None,j,0.304808490909636,150.3435682891868,None,148.34471802273765,None,148.34471802273765,None,148.34471802273765,None,,,,,,,,,,,,,,,,,,,,,,,,,,,,,,,,,,,,,,,,,,,,,,,,,,,,,,,,,delete,001,2020_Aug_06_2144,sonority,2020.1.3,59.420832865226416,
trainingaudio/07_pitapi1.wav,trainingaudio/07_pitapi2.wav,pngimages/07_suitcase.png,2,,,,,,,,,0,37,37,37,,,,,,,,,,,,,,,,,,,,,,,,,,,,,,,,,,,,,,,,,,,150.7571360498201,None,150.75060337409377,151.76857961667702,151.74475691351108,None,151.72997156812343,None,150.75060337409377,151.76857961667702,151.74475691351108,152.7435392155312,152.7435392155312,None,j,1.1296385796740651,152.7435392155312,None,150.75060337409377,None,150.75060337409377,None,150.75060337409377,None,,,,,,,,,,,,,,,,,,,,,,,,,,,,,,,,,,,,,,,,,,,,,,,,,,,,,,,,,delete,001,2020_Aug_06_2144,sonority,2020.1.3,59.420832865226416,
trainingaudio/10_tokiti1.wav,trainingaudio/10_tokiti2.wav,pngimages/10_backpack.png,1,,,,,,,,,0,38,38,38,,,,,,,,,,,,,,,,,,,,,,,,,,,,,,,,,,,,,,,,,,,153.9765645059524,None,153.9742701363284,154.9864490039181,154.96413964452222,None,154.96180200416129,None,153.9742701363284,154.9864490039181,154.96413964452222,155.97911223210394,155.97911223210394,None,f,0.15669828257523477,155.97911223210394,None,153.9742701363284,None,153.9742701363284,None,153.9742701363284,None,,,,,,,,,,,,,,,,,,,,,,,,,,,,,,,,,,,,,,,,,,,,,,,,,,,,,,,,,delete,001,2020_Aug_06_2144,sonority,2020.1.3,59.420832865226416,
trainingaudio/08_tipako1.wav,trainingaudio/08_tipako2.wav,pngimages/08_bell.png,2,,,,,,,,,0,39,39,39,,,,,,,,,,,,,,,,,,,,,,,,,,,,,,,,,,,,,,,,,,,156.2188943302026,None,156.21384701947682,157.23928048205562,157.2165021672845,None,157.2029084668262,None,156.21384701947682,157.23928048205562,157.2165021672845,158.23646108666435,158.21441754396074,None,j,0.15349602024070919,158.21441754396074,None,156.21384701947682,None,156.21384701947682,None,156.21384701947682,None,,,,,,,,,,,,,,,,,,,,,,,,,,,,,,,,,,,,,,,,,,,,,,,,,,,,,,,,,delete,001,2020_Aug_06_2144,sonority,2020.1.3,59.420832865226416,
trainingaudio/14_pokoto1.wav,trainingaudio/14_pokoto2.wav,pngimages/14_coffee.png,1,,,,,,,,,0,40,40,40,,,,,,,,,,,,,,,,,,,,,,,,,,,,,,,,,,,,,,,,,,,158.482968993159,None,158.48430547793396,159.49151651537977,159.49151651537977,None,159.48724679441656,None,158.48430547793396,159.49151651537977,159.49151651537977,160.4997934633866,160.4997934633866,None,f,0.48930313694290817,160.4997934633866,None,158.48430547793396,None,158.48430547793396,None,158.48430547793396,None,,,,,,,,,,,,,,,,,,,,,,,,,,,,,,,,,,,,,,,,,,,,,,,,,,,,,,,,,delete,001,2020_Aug_06_2144,sonority,2020.1.3,59.420832865226416,
trainingaudio/02_pitito3.wav,trainingaudio/02_pitito1.wav,pngimages/02_pallet.png,1,,,,,,,,,0,41,41,41,,,,,,,,,,,,,,,,,,,,,,,,,,,,,,,,,,,,,,,,,,,161.0710850538453,None,161.07081904821098,162.08481370168738,162.0600576188881,None,162.05225562981795,None,161.07081904821098,162.08481370168738,162.0600576188881,163.08747677877545,163.05872287089005,None,f,0.1780667109414935,163.05872287089005,None,161.07081904821098,None,161.07081904821098,None,161.07081904821098,None,,,,,,,,,,,,,,,,,,,,,,,,,,,,,,,,,,,,,,,,,,,,,,,,,,,,,,,,,delete,001,2020_Aug_06_2144,sonority,2020.1.3,59.420832865226416,
trainingaudio/09_tipata2.wav,trainingaudio/09_tipata3.wav,pngimages/09_plane.png,1,,,,,,,,,0,42,42,42,,,,,,,,,,,,,,,,,,,,,,,,,,,,,,,,,,,,,,,,,,,163.35351995881646,None,163.3529557022266,164.371878917329,164.352842428023,None,164.34277797492686,None,163.3529557022266,164.371878917329,164.352842428023,165.37251853919588,165.34269985347055,None,f,0.5649155729915947,165.34269985347055,None,163.3529557022266,None,163.3529557022266,None,163.3529557022266,None,,,,,,,,,,,,,,,,,,,,,,,,,,,,,,,,,,,,,,,,,,,,,,,,,,,,,,,,,delete,001,2020_Aug_06_2144,sonority,2020.1.3,59.420832865226416,
trainingaudio/05_titopo2.wav,trainingaudio/05_titopo3.wav,pngimages/05_megaphone.png,1,,,,,,,,,0,43,43,43,,,,,,,,,,,,,,,,,,,,,,,,,,,,,,,,,,,,,,,,,,,165.99267474433873,None,165.9892476326786,167.00922580854967,167.00922580854967,None,166.9936418798985,None,165.9892476326786,167.00922580854967,167.00922580854967,168.02284778957255,168.0135589253623,None,f,0.1982215945608914,168.0135589253623,None,165.9892476326786,None,165.9892476326786,None,165.9892476326786,None,,,,,,,,,,,,,,,,,,,,,,,,,,,,,,,,,,,,,,,,,,,,,,,,,,,,,,,,,delete,001,2020_Aug_06_2144,sonority,2020.1.3,59.420832865226416,
trainingaudio/27_pakapa2.wav,trainingaudio/27_pakapa1.wav,pngimages/27_kiwi.png,2,,,,,,,,,0,44,44,44,,,,,,,,,,,,,,,,,,,,,,,,,,,,,,,,,,,,,,,,,,,168.31281297667883,None,168.31501827505417,169.323778526159,169.2995974989608,None,169.2932507060701,None,168.31501827505417,169.323778526159,169.2995974989608,170.31071083364077,170.29588210419752,None,j,0.3246579119004309,170.29588210419752,None,168.31501827505417,None,168.31501827505417,None,168.31501827505417,None,,,,,,,,,,,,,,,,,,,,,,,,,,,,,,,,,,,,,,,,,,,,,,,,,,,,,,,,,delete,001,2020_Aug_06_2144,sonority,2020.1.3,59.420832865226416,
trainingaudio/17_kotako1.wav,trainingaudio/17_kotako2.wav,pngimages/17_cracker.png,2,,,,,,,,,0,45,45,45,,,,,,,,,,,,,,,,,,,,,,,,,,,,,,,,,,,,,,,,,,,170.71556629557162,None,170.70795109588653,171.72508910903707,171.69826161814854,None,171.69442535985726,None,170.70795109588653,171.72508910903707,171.69826161814854,172.71150450827554,172.71150450827554,None,j,0.04968245467171073,172.71150450827554,None,170.70795109588653,None,170.70795109588653,None,170.70795109588653,None,,,,,,,,,,,,,,,,,,,,,,,,,,,,,,,,,,,,,,,,,,,,,,,,,,,,,,,,,delete,001,2020_Aug_06_2144,sonority,2020.1.3,59.420832865226416,
trainingaudio/22_kakoki1.wav,trainingaudio/22_kakoki2.wav,pngimages/22_egg.png,1,,,,,,,,,0,46,46,46,,,,,,,,,,,,,,,,,,,,,,,,,,,,,,,,,,,,,,,,,,,172.87479810758958,None,172.87493467866443,173.89990749279968,173.86660864506848,None,173.86687140355352,None,172.87493467866443,173.89990749279968,173.86660864506848,174.88285028166138,174.86087206052616,None,f,0.40886333072558045,174.86087206052616,None,172.87493467866443,None,172.87493467866443,None,172.87493467866443,None,,,,,,,,,,,,,,,,,,,,,,,,,,,,,,,,,,,,,,,,,,,,,,,,,,,,,,,,,delete,001,2020_Aug_06_2144,sonority,2020.1.3,59.420832865226416,
trainingaudio/24_takopa3.wav,trainingaudio/24_takopa1.wav,pngimages/24_banana.png,2,,,,,,,,,0,47,47,47,,,,,,,,,,,,,,,,,,,,,,,,,,,,,,,,,,,,,,,,,,,175.4236671777675,None,175.42306678649038,176.44035243382677,176.41432428150438,None,176.40537067109253,None,175.42306678649038,176.44035243382677,176.41432428150438,177.42825172562152,177.4176428387873,None,j,0.14735957770608366,177.4176428387873,None,175.42306678649038,None,175.42306678649038,None,175.42306678649038,None,,,,,,,,,,,,,,,,,,,,,,,,,,,,,,,,,,,,,,,,,,,,,,,,,,,,,,,,,delete,001,2020_Aug_06_2144,sonority,2020.1.3,59.420832865226416,
trainingaudio/23_patoko2.wav,trainingaudio/23_patoko1.wav,pngimages/23_lemon.png,2,,,,,,,,,0,48,48,48,,,,,,,,,,,,,,,,,,,,,,,,,,,,,,,,,,,,,,,,,,,177.64779511711095,None,177.6530402803328,178.68547484558076,178.65648079640232,None,178.65002563784364,None,177.6530402803328,178.68547484558076,178.65648079640232,179.66745367087424,179.6528816963546,None,f,0.19030259316787124,179.6528816963546,None,177.6530402803328,None,177.6530402803328,None,177.6530402803328,None,,,,,,,,,,,,,,,,,,,,,,,,,,,,,,,,,,,,,,,,,,,,,,,,,,,,,,,,,delete,001,2020_Aug_06_2144,sonority,2020.1.3,59.420832865226416,
trainingaudio/15_kopota3.wav,trainingaudio/15_kopota2.wav,pngimages/15_barrel.png,1,,,,,,,,,0,49,49,49,,,,,,,,,,,,,,,,,,,,,,,,,,,,,,,,,,,,,,,,,,,179.9832838577451,None,179.98605254408903,181.0019471840933,180.98378592683002,None,180.97328272487502,None,179.98605254408903,181.0019471840933,180.98378592683002,182.00607565208338,181.9879816044122,None,j,0.2317613388877362,181.9879816044122,None,179.98605254408903,None,179.98605254408903,None,179.98605254408903,None,,,,,,,,,,,,,,,,,,,,,,,,,,,,,,,,,,,,,,,,,,,,,,,,,,,,,,,,,delete,001,2020_Aug_06_2144,sonority,2020.1.3,59.420832865226416,
trainingaudio/06_titoka2.wav,trainingaudio/06_titoka3.wav,pngimages/06_tent.png,2,,,,,,,,,0,50,50,50,,,,,,,,,,,,,,,,,,,,,,,,,,,,,,,,,,,,,,,,,,,182.305811156868,None,182.30421002558433,183.3248040357139,183.309641902335,None,183.28953568895813,None,182.30421002558433,183.3248040357139,183.309641902335,184.31024527642876,184.29484300198965,None,f,0.2582818563096225,184.29484300198965,None,182.30421002558433,None,182.30421002558433,None,182.30421002558433,None,,,,,,,,,,,,,,,,,,,,,,,,,,,,,,,,,,,,,,,,,,,,,,,,,,,,,,,,,delete,001,2020_Aug_06_2144,sonority,2020.1.3,59.420832865226416,
trainingaudio/18_popata2.wav,trainingaudio/18_popata3.wav,pngimages/18_donut.png,1,,,,,,,,,0,51,51,51,,,,,,,,,,,,,,,,,,,,,,,,,,,,,,,,,,,,,,,,,,,184.65424680188298,None,184.6581557446625,185.6733159897849,185.65580001822673,None,185.65400156311225,None,184.6581557446625,185.6733159897849,185.65580001822673,186.68057649047114,186.65457174787298,None,j,0.11583875794894993,186.65457174787298,None,184.6581557446625,None,184.6581557446625,None,184.6581557446625,None,,,,,,,,,,,,,,,,,,,,,,,,,,,,,,,,,,,,,,,,,,,,,,,,,,,,,,,,,delete,001,2020_Aug_06_2144,sonority,2020.1.3,59.420832865226416,
trainingaudio/21_papika1.wav,trainingaudio/21_papika2.wav,pngimages/21_cheese.png,1,,,,,,,,,0,52,52,52,,,,,,,,,,,,,,,,,,,,,,,,,,,,,,,,,,,,,,,,,,,186.894629819924,None,186.89225883921608,187.9134720817674,187.9134720817674,None,187.8943966636667,None,186.89225883921608,187.9134720817674,187.9134720817674,188.92739914823323,188.91500354930758,None,f,0.1689190617762506,188.91500354930758,None,186.89225883921608,None,186.89225883921608,None,186.89225883921608,None,,,,,,,,,,,,,,,,,,,,,,,,,,,,,,,,,,,,,,,,,,,,,,,,,,,,,,,,,delete,001,2020_Aug_06_2144,sonority,2020.1.3,59.420832865226416,
trainingaudio/01_kitipi1.wav,trainingaudio/01_kitipi2.wav,pngimages/01_gift.png,1,,,,,,,,,0,53,53,53,,,,,,,,,,,,,,,,,,,,,,,,,,,,,,,,,,,,,,,,,,,189.19655249884818,None,189.200817839941,190.21440093033016,190.19151009665802,None,190.18398525172378,None,189.200817839941,190.21440093033016,190.19151009665802,191.20082048303448,191.20082048303448,None,f,0.09139342419803143,191.20082048303448,None,189.200817839941,None,189.200817839941,None,189.200817839941,None,,,,,,,,,,,,,,,,,,,,,,,,,,,,,,,,,,,,,,,,,,,,,,,,,,,,,,,,,delete,001,2020_Aug_06_2144,sonority,2020.1.3,59.420832865226416,
,,,,,,,,,,,,,,,,,,,,,,,,,,,,,,,,,,,,,,,,,,,,,,,,,,,,,,,,,,,,,,,,,,,,,,,,,,,,,,,,,,f,4.118762365775183,191.34193940577097,None,,,,,,,,,,,,,,,,,,,,,,,,,,,,,,,,,,,,,,,,,,,,,,,,,,,,,delete,001,2020_Aug_06_2144,sonority,2020.1.3,59.420832865226416,
novelaudio/61_pikati2.wav,novelaudio/61_pikati1.wav,pngimages/61_key.png,1,,,,,,,,,,,,,0,0,0,0,,,,,,,,,,,,,,,,,,,,,,,,,,,,,,,,,,,,,,,,,,,,,,,,,,,,,,,,,,,,,,,,,,,191.34193940577097,None,None,None,None,None,None,None,None,None,None,None,195.56857108338735,None,195.57423577667214,196.5980626330711,196.5713246287778,None,196.5652512044413,None,195.57423577667214,196.5980626330711,196.5713246287778,197.5992720243521,197.5992720243521,None,j,0.8220186221878976,197.5992720243521,None,195.57423577667214,None,195.57423577667214,None,195.57423577667214,None,,,,,,,,,,,,,,,,,delete,001,2020_Aug_06_2144,sonority,2020.1.3,59.420832865226416,
novelaudio/41_pototo2.wav,novelaudio/41_pototo1.wav,pngimages/41_piano.png,2,,,,,,,,,,,,,0,1,1,1,,,,,,,,,,,,,,,,,,,,,,,,,,,,,,,,,,,,,,,,,,,,,,,,,,,,,,,,,,,,,,,,,,,,,,,,,,,,,,,198.5722629548749,None,198.57973335240968,199.58785851299763,199.58785851299763,None,199.5824866337003,None,198.57973335240968,199.58785851299763,199.58785851299763,200.61867325683124,200.59200434968807,None,j,1.3333430245984346,200.59200434968807,None,198.57973335240968,None,198.57973335240968,None,198.57973335240968,None,,,,,,,,,,,,,,,,,delete,001,2020_Aug_06_2144,sonority,2020.1.3,59.420832865226416,
novelaudio/79_katapi1.wav,novelaudio/79_katapi2.wav,pngimages/79_pig.png,1,,,,,,,,,,,,,0,2,2,2,,,,,,,,,,,,,,,,,,,,,,,,,,,,,,,,,,,,,,,,,,,,,,,,,,,,,,,,,,,,,,,,,,,,,,,,,,,,,,,202.07370267014485,None,202.07842352474108,203.0749165546149,203.0749165546149,None,203.07797718655783,None,202.07842352474108,203.0749165546149,203.0749165546149,204.1122657111846,204.0884535801597,None,f,0.11349888984113932,204.0884535801597,None,202.07842352474108,None,202.07842352474108,None,202.07842352474108,None,,,,,,,,,,,,,,,,,delete,001,2020_Aug_06_2144,sonority,2020.1.3,59.420832865226416,
novelaudio/32_kipoto2.wav,novelaudio/32_kipoto1.wav,pngimages/32_greenpepper.png,1,,,,,,,,,,,,,0,3,3,3,,,,,,,,,,,,,,,,,,,,,,,,,,,,,,,,,,,,,,,,,,,,,,,,,,,,,,,,,,,,,,,,,,,,,,,,,,,,,,,204.29116630915087,None,204.29012890602462,205.28988423384726,205.2734602256678,None,205.27627618520054,None,204.29012890602462,205.28988423384726,205.2734602256678,206.30909365508705,206.30909365508705,None,j,0.0676111220382154,206.30909365508705,None,204.29012890602462,None,204.29012890602462,None,204.29012890602462,None,,,,,,,,,,,,,,,,,delete,001,2020_Aug_06_2144,sonority,2020.1.3,59.420832865226416,
novelaudio/34_kipaki2.wav,novelaudio/34_kipaki1.wav,pngimages/34_knife.png,1,,,,,,,,,,,,,0,4,4,4,,,,,,,,,,,,,,,,,,,,,,,,,,,,,,,,,,,,,,,,,,,,,,,,,,,,,,,,,,,,,,,,,,,,,,,,,,,,,,,206.46073065663222,None,206.46982374531217,207.5115350924898,207.47620976879261,None,207.4640542734647,None,206.46982374531217,207.5115350924898,207.47620976879261,208.50952183175832,208.45834831078537,None,f,1.0910630410071462,208.45834831078537,None,206.46982374531217,None,206.46982374531217,None,206.46982374531217,None,,,,,,,,,,,,,,,,,delete,001,2020_Aug_06_2144,sonority,2020.1.3,59.420832865226416,
novelaudio/59_tipoko2.wav,novelaudio/59_tipoko3.wav,pngimages/59_umbrella.png,1,,,,,,,,,,,,,0,5,5,5,,,,,,,,,,,,,,,,,,,,,,,,,,,,,,,,,,,,,,,,,,,,,,,,,,,,,,,,,,,,,,,,,,,,,,,,,,,,,,,209.69766016977374,None,209.69107210286893,210.71076558274217,210.69591457606293,None,210.68352988923434,None,209.69107210286893,210.71076558274217,210.69591457606293,211.68935411027633,211.68935411027633,None,j,0.426231290679425,211.68935411027633,None,209.69107210286893,None,209.69107210286893,None,209.69107210286893,None,,,,,,,,,,,,,,,,,delete,001,2020_Aug_06_2144,sonority,2020.1.3,59.420832865226416,
novelaudio/54_kapapa1.wav,novelaudio/54_kapapa3.wav,pngimages/54_toiletpaper.png,1,,,,,,,,,,,,,0,6,6,6,,,,,,,,,,,,,,,,,,,,,,,,,,,,,,,,,,,,,,,,,,,,,,,,,,,,,,,,,,,,,,,,,,,,,,,,,,,,,,,212.24911842443979,None,212.24196092807688,213.24993052519858,213.24993052519858,None,213.24292258850764,None,212.24196092807688,213.24993052519858,213.24993052519858,214.25730090169236,214.22307207272388,None,f,0.2599065867252648,214.22307207272388,None,212.24196092807688,None,212.24196092807688,None,212.24196092807688,None,,,,,,,,,,,,,,,,,delete,001,2020_Aug_06_2144,sonority,2020.1.3,59.420832865226416,
novelaudio/57_tipipa3.wav,novelaudio/57_tipipa1.wav,pngimages/57_flashlight.png,1,,,,,,,,,,,,,0,7,7,7,,,,,,,,,,,,,,,,,,,,,,,,,,,,,,,,,,,,,,,,,,,,,,,,,,,,,,,,,,,,,,,,,,,,,,,,,,,,,,,214.56385060644243,None,214.5598212534096,215.57998595410027,215.55143782752566,None,215.545247353171,None,214.5598212534096,215.57998595410027,215.55143782752566,216.5819931733422,216.556845161831,None,j,0.26108765904791653,216.556845161831,None,214.5598212534096,None,214.5598212534096,None,214.5598212534096,None,,,,,,,,,,,,,,,,,delete,001,2020_Aug_06_2144,sonority,2020.1.3,59.420832865226416,
novelaudio/52_pakaki3.wav,novelaudio/52_pakaki1.wav,pngimages/52_newspaper.png,2,,,,,,,,,,,,,0,8,8,8,,,,,,,,,,,,,,,,,,,,,,,,,,,,,,,,,,,,,,,,,,,,,,,,,,,,,,,,,,,,,,,,,,,,,,,,,,,,,,,216.93253020655828,None,216.92527223587967,217.94850553548895,217.89494759193622,None,217.90324753432068,None,216.92527223587967,217.94850553548895,217.89494759193622,218.90552551695146,218.90552551695146,None,j,0.3295430517755449,218.90552551695146,None,216.92527223587967,None,216.92527223587967,None,216.92527223587967,None,,,,,,,,,,,,,,,,,delete,001,2020_Aug_06_2144,sonority,2020.1.3,59.420832865226416,
novelaudio/63_pitapa3.wav,novelaudio/63_pitapa2.wav,pngimages/63_chair.png,2,,,,,,,,,,,,,0,9,9,9,,,,,,,,,,,,,,,,,,,,,,,,,,,,,,,,,,,,,,,,,,,,,,,,,,,,,,,,,,,,,,,,,,,,,,,,,,,,,,,219.39796147912276,None,219.3939821177628,220.40875156689435,220.38399737211876,None,220.37713706938084,None,219.3939821177628,220.40875156689435,220.38399737211876,221.40038060140796,221.37230218551122,None,f,0.3432730210479349,221.37230218551122,None,219.3939821177628,None,219.3939821177628,None,219.3939821177628,None,,,,,,,,,,,,,,,,,delete,001,2020_Aug_06_2144,sonority,2020.1.3,59.420832865226416,
novelaudio/72_topata1.wav,novelaudio/72_topata2.wav,pngimages/72_nose.png,2,,,,,,,,,,,,,0,10,10,10,,,,,,,,,,,,,,,,,,,,,,,,,,,,,,,,,,,,,,,,,,,,,,,,,,,,,,,,,,,,,,,,,,,,,,,,,,,,,,,221.82657881630584,None,221.8243369681295,222.8365154583007,222.81805326906033,None,222.80550924318376,None,221.8243369681295,222.8365154583007,222.81805326906033,223.838169262046,223.81248735100962,None,j,0.37169692339375615,223.81248735100962,None,221.8243369681295,None,221.8243369681295,None,221.8243369681295,None,,,,,,,,,,,,,,,,,delete,001,2020_Aug_06_2144,sonority,2020.1.3,59.420832865226416,
novelaudio/29_pipito3.wav,novelaudio/29_pipito2.wav,pngimages/29_cherry.png,1,,,,,,,,,,,,,0,11,11,11,,,,,,,,,,,,,,,,,,,,,,,,,,,,,,,,,,,,,,,,,,,,,,,,,,,,,,,,,,,,,,,,,,,,,,,,,,,,,,,224.27259764249902,None,224.27003972162493,225.29041586746462,225.25974573707208,None,225.25575693629216,None,224.27003972162493,225.29041586746462,225.25974573707208,226.25320452800952,226.25320452800952,None,j,0.3100983975455165,226.25320452800952,None,224.27003972162493,None,224.27003972162493,None,224.27003972162493,None,,,,,,,,,,,,,,,,,delete,001,2020_Aug_06_2144,sonority,2020.1.3,59.420832865226416,
novelaudio/65_totipo2.wav,novelaudio/65_totipo1.wav,pngimages/65_wrench.png,2,,,,,,,,,,,,,0,12,12,12,,,,,,,,,,,,,,,,,,,,,,,,,,,,,,,,,,,,,,,,,,,,,,,,,,,,,,,,,,,,,,,,,,,,,,,,,,,,,,,226.63850062675775,None,226.64529194543138,227.68139168713242,227.68139168713242,None,227.66365214998368,None,226.64529194543138,227.68139168713242,227.68139168713242,228.71291288454086,228.65302630979568,None,f,0.3019981572870165,228.65302630979568,None,226.64529194543138,None,226.64529194543138,None,226.64529194543138,None,,,,,,,,,,,,,,,,,delete,001,2020_Aug_06_2144,sonority,2020.1.3,59.420832865226416,
novelaudio/45_totaka1.wav,novelaudio/45_totaka2.wav,pngimages/45_scissors.png,2,,,,,,,,,,,,,0,13,13,13,,,,,,,,,,,,,,,,,,,,,,,,,,,,,,,,,,,,,,,,,,,,,,,,,,,,,,,,,,,,,,,,,,,,,,,,,,,,,,,229.09495827734935,None,229.0882549728267,230.11272824765183,230.11272824765183,None,230.09683923379052,None,229.0882549728267,230.11272824765183,230.11272824765183,231.14512429968454,231.08767802943476,None,f,0.2981611816212535,231.08767802943476,None,229.0882549728267,None,229.0882549728267,None,229.0882549728267,None,,,,,,,,,,,,,,,,,delete,001,2020_Aug_06_2144,sonority,2020.1.3,59.420832865226416,
novelaudio/64_popiti2.wav,novelaudio/64_popiti1.wav,pngimages/64_shovel.png,2,,,,,,,,,,,,,0,14,14,14,,,,,,,,,,,,,,,,,,,,,,,,,,,,,,,,,,,,,,,,,,,,,,,,,,,,,,,,,,,,,,,,,,,,,,,,,,,,,,,231.49870538890826,None,231.49953179992735,232.52666928456165,232.50303650461137,None,232.49627701591234,None,231.49953179992735,232.52666928456165,232.50303650461137,233.51440810435452,233.49503103713505,None,j,0.12381703942082822,233.49503103713505,None,231.49953179992735,None,231.49953179992735,None,231.49953179992735,None,,,,,,,,,,,,,,,,,delete,001,2020_Aug_06_2144,sonority,2020.1.3,59.420832865226416,
novelaudio/38_kokiko2.wav,novelaudio/38_kokiko1.wav,pngimages/38_plate.png,2,,,,,,,,,,,,,0,15,15,15,,,,,,,,,,,,,,,,,,,,,,,,,,,,,,,,,,,,,,,,,,,,,,,,,,,,,,,,,,,,,,,,,,,,,,,,,,,,,,,233.7235751612112,None,233.71622577821836,234.73727666097693,234.71559333056211,None,234.70189730569254,None,233.71622577821836,234.73727666097693,234.71559333056211,235.72877316456288,235.70397668075748,None,j,0.16512173204682767,235.70397668075748,None,233.71622577821836,None,233.71622577821836,None,233.71622577821836,None,,,,,,,,,,,,,,,,,delete,001,2020_Aug_06_2144,sonority,2020.1.3,59.420832865226416,
novelaudio/53_patapo3.wav,novelaudio/53_patapo1.wav,pngimages/53_hammer.png,2,,,,,,,,,,,,,0,16,16,16,,,,,,,,,,,,,,,,,,,,,,,,,,,,,,,,,,,,,,,,,,,,,,,,,,,,,,,,,,,,,,,,,,,,,,,,,,,,,,,235.9476176920347,None,235.95350659266114,236.96482382086106,236.96482382086106,None,236.96317299993243,None,235.95350659266114,236.96482382086106,236.96482382086106,237.96509832213633,237.96509832213633,None,j,0.14482865389436483,237.96509832213633,None,235.95350659266114,None,235.95350659266114,None,235.95350659266114,None,,,,,,,,,,,,,,,,,delete,001,2020_Aug_06_2144,sonority,2020.1.3,59.420832865226416,
novelaudio/67_tokoki1.wav,novelaudio/67_tokoki2.wav,pngimages/67_laptop.png,1,,,,,,,,,,,,,0,17,17,17,,,,,,,,,,,,,,,,,,,,,,,,,,,,,,,,,,,,,,,,,,,,,,,,,,,,,,,,,,,,,,,,,,,,,,,,,,,,,,,238.22310507311485,None,238.2289298607502,239.25212389184162,239.22770838695578,None,239.21761221697088,None,238.2289298607502,239.25212389184162,239.22770838695578,240.2378162238747,240.2125813686289,None,f,0.06834778212942183,240.2125813686289,None,238.2289298607502,None,238.2289298607502,None,238.2289298607502,None,,,,,,,,,,,,,,,,,delete,001,2020_Aug_06_2144,sonority,2020.1.3,59.420832865226416,
novelaudio/28_pipiki3.wav,novelaudio/28_pipiki1.wav,pngimages/28_grape.png,2,,,,,,,,,,,,,0,18,18,18,,,,,,,,,,,,,,,,,,,,,,,,,,,,,,,,,,,,,,,,,,,,,,,,,,,,,,,,,,,,,,,,,,,,,,,,,,,,,,,240.3821081089787,None,240.38524791947566,241.4134343236219,241.38683262607083,None,241.37432560303714,None,240.38524791947566,241.4134343236219,241.38683262607083,242.41130250273272,242.38682318641804,None,j,1.2950948483776301,242.38682318641804,None,240.38524791947566,None,240.38524791947566,None,240.38524791947566,None,,,,,,,,,,,,,,,,,delete,001,2020_Aug_06_2144,sonority,2020.1.3,59.420832865226416,
novelaudio/78_kakoka3.wav,novelaudio/78_kakoka1.wav,pngimages/78_cow.png,2,,,,,,,,,,,,,0,19,19,19,,,,,,,,,,,,,,,,,,,,,,,,,,,,,,,,,,,,,,,,,,,,,,,,,,,,,,,,,,,,,,,,,,,,,,,,,,,,,,,243.83487415241544,None,243.83522073365748,244.8608845206909,244.80737604037859,None,244.80784684561658,None,243.83522073365748,244.8608845206909,244.80737604037859,245.82515820628032,245.82515820628032,None,j,0.14470820548012853,245.82515820628032,None,243.83522073365748,None,243.83522073365748,None,243.83522073365748,None,,,,,,,,,,,,,,,,,delete,001,2020_Aug_06_2144,sonority,2020.1.3,59.420832865226416,
novelaudio/46_tapiti2.wav,novelaudio/46_tapiti1.wav,pngimages/46_paper.png,2,,,,,,,,,,,,,0,20,20,20,,,,,,,,,,,,,,,,,,,,,,,,,,,,,,,,,,,,,,,,,,,,,,,,,,,,,,,,,,,,,,,,,,,,,,,,,,,,,,,246.11218649470246,None,246.11430200422183,247.14315672637895,247.1135151258204,None,247.10646150193642,None,246.11430200422183,247.14315672637895,247.1135151258204,248.13124782894738,248.11129608377814,None,j,0.1312591563910246,248.11129608377814,None,246.11430200422183,None,246.11430200422183,None,246.11430200422183,None,,,,,,,,,,,,,,,,,delete,001,2020_Aug_06_2144,sonority,2020.1.3,59.420832865226416,
novelaudio/51_tapopa3.wav,novelaudio/51_tapopa1.wav,pngimages/51_pencil.png,2,,,,,,,,,,,,,0,21,21,21,,,,,,,,,,,,,,,,,,,,,,,,,,,,,,,,,,,,,,,,,,,,,,,,,,,,,,,,,,,,,,,,,,,,,,,,,,,,,,,248.3585338161094,None,248.3605480962433,249.37958156503737,249.37958156503737,None,249.365185505501,None,248.3605480962433,249.37958156503737,249.37958156503737,250.39212064468302,250.35189885366708,None,j,0.04424906731583178,250.35189885366708,None,248.3605480962433,None,248.3605480962433,None,248.3605480962433,None,,,,,,,,,,,,,,,,,delete,001,2020_Aug_06_2144,sonority,2020.1.3,59.420832865226416,
novelaudio/47_takiko1.wav,novelaudio/47_takiko2.wav,pngimages/47_notebook.png,1,,,,,,,,,,,,,0,22,22,22,,,,,,,,,,,,,,,,,,,,,,,,,,,,,,,,,,,,,,,,,,,,,,,,,,,,,,,,,,,,,,,,,,,,,,,,,,,,,,,250.54602830340153,None,250.54327943990938,251.5681786260102,251.545396912843,None,251.5304016326787,None,250.54327943990938,251.5681786260102,251.545396912843,252.55543980607763,252.5312017640099,None,j,0.07435773499310017,252.5312017640099,None,250.54327943990938,None,250.54327943990938,None,250.54327943990938,None,,,,,,,,,,,,,,,,,delete,001,2020_Aug_06_2144,sonority,2020.1.3,59.420832865226416,
novelaudio/55_pikiki1.wav,novelaudio/55_pikiki2.wav,pngimages/55_toilet.png,1,,,,,,,,,,,,,0,23,23,23,,,,,,,,,,,,,,,,,,,,,,,,,,,,,,,,,,,,,,,,,,,,,,,,,,,,,,,,,,,,,,,,,,,,,,,,,,,,,,,252.7470066151116,None,252.74385940399952,253.77875994937494,253.72567700245418,None,253.73212453376036,None,252.74385940399952,253.77875994937494,253.72567700245418,254.72249475168064,254.72249475168064,None,f,0.8406888584140688,254.72249475168064,None,252.74385940399952,None,252.74385940399952,None,252.74385940399952,None,,,,,,,,,,,,,,,,,delete,001,2020_Aug_06_2144,sonority,2020.1.3,59.420832865226416,
novelaudio/43_potaki3.wav,novelaudio/43_potaki2.wav,pngimages/43_guitar.png,2,,,,,,,,,,,,,0,24,24,24,,,,,,,,,,,,,,,,,,,,,,,,,,,,,,,,,,,,,,,,,,,,,,,,,,,,,,,,,,,,,,,,,,,,,,,,,,,,,,,255.67005082233808,None,255.67457144591026,256.68419409170747,256.68419409170747,None,256.68027061226314,None,255.67457144591026,256.68419409170747,256.68419409170747,257.71593994949944,257.6649586171843,None,f,1.1400700034573674,257.6649586171843,None,255.67457144591026,None,255.67457144591026,None,255.67457144591026,None,,,,,,,,,,,,,,,,,delete,001,2020_Aug_06_2144,sonority,2020.1.3,59.420832865226416,
novelaudio/71_kotato2.wav,novelaudio/71_kotato1.wav,pngimages/71_eye.png,1,,,,,,,,,,,,,0,25,25,25,,,,,,,,,,,,,,,,,,,,,,,,,,,,,,,,,,,,,,,,,,,,,,,,,,,,,,,,,,,,,,,,,,,,,,,,,,,,,,,258.9056827792665,None,258.91201575263403,259.9334955671802,259.91579344822094,None,259.90365909740797,None,258.91201575263403,259.9334955671802,259.91579344822094,260.94327188842,260.91851089708507,None,f,0.37233616784214973,260.91851089708507,None,258.91201575263403,None,258.91201575263403,None,258.91201575263403,None,,,,,,,,,,,,,,,,,delete,001,2020_Aug_06_2144,sonority,2020.1.3,59.420832865226416,
novelaudio/74_tatiko1.wav,novelaudio/74_tatiko2.wav,pngimages/74_boat.png,1,,,,,,,,,,,,,0,26,26,26,,,,,,,,,,,,,,,,,,,,,,,,,,,,,,,,,,,,,,,,,,,,,,,,,,,,,,,,,,,,,,,,,,,,,,,,,,,,,,,261.4335387245985,None,261.42926552984864,262.4434629443567,262.4207356029656,None,262.4076776895905,None,261.42926552984864,262.4434629443567,262.4207356029656,263.43910150881857,263.41830473789014,None,f,0.3722217606846243,263.41830473789014,None,261.42926552984864,None,261.42926552984864,None,261.42926552984864,None,,,,,,,,,,,,,,,,,delete,001,2020_Aug_06_2144,sonority,2020.1.3,59.420832865226416,
novelaudio/73_takiti1.wav,novelaudio/73_takiti3.wav,pngimages/73_car.png,1,,,,,,,,,,,,,0,27,27,27,,,,,,,,,,,,,,,,,,,,,,,,,,,,,,,,,,,,,,,,,,,,,,,,,,,,,,,,,,,,,,,,,,,,,,,,,,,,,,,263.8759962468175,None,263.8837066348642,264.9102532058023,264.8871626316104,None,264.87718691003977,None,263.8837066348642,264.9102532058023,264.8871626316104,265.9062565132044,265.9062565132044,None,f,1.7505248372908682,265.9062565132044,None,263.8837066348642,None,263.8837066348642,None,263.8837066348642,None,,,,,,,,,,,,,,,,,delete,001,2020_Aug_06_2144,sonority,2020.1.3,59.420832865226416,
novelaudio/31_kikopi2.wav,novelaudio/31_kikopi3.wav,pngimages/31_tomato.png,1,,,,,,,,,,,,,0,28,28,28,,,,,,,,,,,,,,,,,,,,,,,,,,,,,,,,,,,,,,,,,,,,,,,,,,,,,,,,,,,,,,,,,,,,,,,,,,,,,,,267.7596069761785,None,267.759179366054,268.7554669920355,268.7554669920355,None,268.7602074807743,None,267.759179366054,268.7554669920355,268.7554669920355,269.77871539467014,269.77871539467014,None,f,0.4086201689206064,269.77871539467014,None,267.759179366054,None,267.759179366054,None,267.759179366054,None,,,,,,,,,,,,,,,,,delete,001,2020_Aug_06_2144,sonority,2020.1.3,59.420832865226416,
novelaudio/77_takopo2.wav,novelaudio/77_takopo1.wav,pngimages/77_bear.png,2,,,,,,,,,,,,,0,29,29,29,,,,,,,,,,,,,,,,,,,,,,,,,,,,,,,,,,,,,,,,,,,,,,,,,,,,,,,,,,,,,,,,,,,,,,,,,,,,,,,270.30591793654025,None,270.30955203832127,271.3190130793955,271.2938099410385,None,271.29977379136255,None,270.30955203832127,271.3190130793955,271.2938099410385,272.3133459696546,272.3133459696546,None,j,0.18325089500285685,272.3133459696546,None,270.30955203832127,None,270.30955203832127,None,270.30955203832127,None,,,,,,,,,,,,,,,,,delete,001,2020_Aug_06_2144,sonority,2020.1.3,59.420832865226416,
novelaudio/66_kopipa2.wav,novelaudio/66_kopipa3.wav,pngimages/66_safe.png,2,,,,,,,,,,,,,0,30,30,30,,,,,,,,,,,,,,,,,,,,,,,,,,,,,,,,,,,,,,,,,,,,,,,,,,,,,,,,,,,,,,,,,,,,,,,,,,,,,,,272.58479165085595,None,272.59180611977354,273.59770846227184,273.59770846227184,None,273.5917275452754,None,272.59180611977354,273.59770846227184,273.59770846227184,274.60112141491845,274.60112141491845,None,f,1.8438884776551276,274.60112141491845,None,272.59180611977354,None,272.59180611977354,None,272.59180611977354,None,,,,,,,,,,,,,,,,,delete,001,2020_Aug_06_2144,sonority,2020.1.3,59.420832865226416,
novelaudio/62_pitako3.wav,novelaudio/62_pitako2.wav,pngimages/62_screwdriver.png,2,,,,,,,,,,,,,0,31,31,31,,,,,,,,,,,,,,,,,,,,,,,,,,,,,,,,,,,,,,,,,,,,,,,,,,,,,,,,,,,,,,,,,,,,,,,,,,,,,,,276.5842523145955,None,276.57783147809096,277.58962445822544,277.56877407082357,None,277.5652330806712,None,276.57783147809096,277.58962445822544,277.56877407082357,278.58538989000954,278.56807743432,None,f,0.6491168385837227,278.56807743432,None,276.57783147809096,None,276.57783147809096,None,276.57783147809096,None,,,,,,,,,,,,,,,,,delete,001,2020_Aug_06_2144,sonority,2020.1.3,59.420832865226416,
novelaudio/60_pipopa2.wav,novelaudio/60_pipopa3.wav,pngimages/60_firewood.png,2,,,,,,,,,,,,,0,32,32,32,,,,,,,,,,,,,,,,,,,,,,,,,,,,,,,,,,,,,,,,,,,,,,,,,,,,,,,,,,,,,,,,,,,,,,,,,,,,,,,279.3328288727673,None,279.3324572201818,280.35328872851096,280.32407001871616,None,280.31673698478846,None,279.3324572201818,280.35328872851096,280.32407001871616,281.3358433644753,281.3358433644753,None,j,0.3030678436625749,281.3358433644753,None,279.3324572201818,None,279.3324572201818,None,279.3324572201818,None,,,,,,,,,,,,,,,,,delete,001,2020_Aug_06_2144,sonority,2020.1.3,59.420832865226416,
novelaudio/30_tikipa3.wav,novelaudio/30_tikipa1.wav,pngimages/30_mushroom.png,1,,,,,,,,,,,,,0,33,33,33,,,,,,,,,,,,,,,,,,,,,,,,,,,,,,,,,,,,,,,,,,,,,,,,,,,,,,,,,,,,,,,,,,,,,,,,,,,,,,,281.74302513932344,None,281.7489057709463,282.7741632810794,282.7496428086888,None,282.7381318437634,None,281.7489057709463,282.7741632810794,282.7496428086888,283.7613145853393,283.7613145853393,None,f,2.2222708461340517,283.7613145853393,None,281.7489057709463,None,281.7489057709463,None,281.7489057709463,None,,,,,,,,,,,,,,,,,delete,001,2020_Aug_06_2144,sonority,2020.1.3,59.420832865226416,
novelaudio/75_kakita1.wav,novelaudio/75_kakita3.wav,pngimages/75_chicken.png,1,,,,,,,,,,,,,0,34,34,34,,,,,,,,,,,,,,,,,,,,,,,,,,,,,,,,,,,,,,,,,,,,,,,,,,,,,,,,,,,,,,,,,,,,,,,,,,,,,,,286.0936956849415,None,286.09639259334654,287.1135951729957,287.08619866799563,None,287.09220178683756,None,286.09639259334654,287.1135951729957,287.08619866799563,288.1134263945278,288.1134263945278,None,f,0.965528008993715,288.1134263945278,None,286.09639259334654,None,286.09639259334654,None,286.09639259334654,None,,,,,,,,,,,,,,,,,delete,001,2020_Aug_06_2144,sonority,2020.1.3,59.420832865226416,
novelaudio/50_katoko1.wav,novelaudio/50_katoko3.wav,pngimages/50_ruler.png,1,,,,,,,,,,,,,0,35,35,35,,,,,,,,,,,,,,,,,,,,,,,,,,,,,,,,,,,,,,,,,,,,,,,,,,,,,,,,,,,,,,,,,,,,,,,,,,,,,,,289.2212016507285,None,289.21606115298346,290.24656892358325,290.1877712919377,None,290.19612296300477,None,289.21606115298346,290.24656892358325,290.1877712919377,291.2147082812153,291.2147082812153,None,f,0.14328321581706405,291.2147082812153,None,289.21606115298346,None,289.21606115298346,None,289.21606115298346,None,,,,,,,,,,,,,,,,,delete,001,2020_Aug_06_2144,sonority,2020.1.3,59.420832865226416,
novelaudio/56_pipiko1.wav,novelaudio/56_pipiko3.wav,pngimages/56_towel.png,2,,,,,,,,,,,,,0,36,36,36,,,,,,,,,,,,,,,,,,,,,,,,,,,,,,,,,,,,,,,,,,,,,,,,,,,,,,,,,,,,,,,,,,,,,,,,,,,,,,,291.50223497599364,None,291.50509280944243,292.5141094380524,292.49307705671526,None,292.48556089636406,None,291.50509280944243,292.5141094380524,292.49307705671526,293.5118322484195,293.48127388209105,None,f,1.5277223573066294,293.48127388209105,None,291.50509280944243,None,291.50509280944243,None,291.50509280944243,None,,,,,,,,,,,,,,,,,delete,001,2020_Aug_06_2144,sonority,2020.1.3,59.420832865226416,
novelaudio/48_pakipa3.wav,novelaudio/48_pakipa1.wav,pngimages/48_brush.png,2,,,,,,,,,,,,,0,37,37,37,,,,,,,,,,,,,,,,,,,,,,,,,,,,,,,,,,,,,,,,,,,,,,,,,,,,,,,,,,,,,,,,,,,,,,,,,,,,,,,295.11039800790604,None,295.1111250396352,296.1186751446221,296.1186751446221,None,296.11308502361646,None,295.1111250396352,296.1186751446221,296.1186751446221,297.1418861669954,297.11572586139664,None,j,0.9066658108495176,297.11572586139664,None,295.1111250396352,None,295.1111250396352,None,295.1111250396352,None,,,,,,,,,,,,,,,,,delete,001,2020_Aug_06_2144,sonority,2020.1.3,59.420832865226416,
novelaudio/81_kakapa2.wav,novelaudio/81_kakapa1.wav,pngimages/81_cat.png,2,,,,,,,,,,,,,0,38,38,38,,,,,,,,,,,,,,,,,,,,,,,,,,,,,,,,,,,,,,,,,,,,,,,,,,,,,,,,,,,,,,,,,,,,,,,,,,,,,,,298.1381973162527,None,298.1394031958189,299.16526445769705,299.14219691604376,None,299.1336669512326,None,298.1394031958189,299.16526445769705,299.14219691604376,300.1557951096911,300.1242724019103,None,j,0.25304292351938784,300.1242724019103,None,298.1394031958189,None,298.1394031958189,None,298.1394031958189,None,,,,,,,,,,,,,,,,,delete,001,2020_Aug_06_2144,sonority,2020.1.3,59.420832865226416,
novelaudio/37_kokiti1.wav,novelaudio/37_kokiti3.wav,pngimages/37_mug.png,1,,,,,,,,,,,,,0,39,39,39,,,,,,,,,,,,,,,,,,,,,,,,,,,,,,,,,,,,,,,,,,,,,,,,,,,,,,,,,,,,,,,,,,,,,,,,,,,,,,,300.471857584198,None,300.4770668770652,301.48962408071384,301.48962408071384,None,301.4857440230204,None,300.4770668770652,301.48962408071384,301.48962408071384,302.5216580326669,302.4704962167889,None,f,2.786203954135999,302.4704962167889,None,300.4770668770652,None,300.4770668770652,None,300.4770668770652,None,,,,,,,,,,,,,,,,,delete,001,2020_Aug_06_2144,sonority,2020.1.3,59.420832865226416,
novelaudio/76_patoti1.wav,novelaudio/76_patoti3.wav,pngimages/76_rabbit.png,1,,,,,,,,,,,,,0,40,40,40,,,,,,,,,,,,,,,,,,,,,,,,,,,,,,,,,,,,,,,,,,,,,,,,,,,,,,,,,,,,,,,,,,,,,,,,,,,,,,,305.44614524024075,None,305.4421848333441,306.4390988657251,306.4390988657251,None,306.44215458913243,None,305.4421848333441,306.4390988657251,306.4390988657251,307.44569897744805,307.42228745971806,None,f,0.12083906005136669,307.42228745971806,None,305.4421848333441,None,305.4421848333441,None,305.4421848333441,None,,,,,,,,,,,,,,,,,delete,001,2020_Aug_06_2144,sonority,2020.1.3,59.420832865226416,
novelaudio/33_tipoka2.wav,novelaudio/33_tipoka3.wav,pngimages/33_watermelon.png,2,,,,,,,,,,,,,0,41,41,41,,,,,,,,,,,,,,,,,,,,,,,,,,,,,,,,,,,,,,,,,,,,,,,,,,,,,,,,,,,,,,,,,,,,,,,,,,,,,,,307.6626294347691,None,307.65534578845836,308.7107738896739,308.67945960653014,None,308.6440277672606,None,307.65534578845836,308.7107738896739,308.67945960653014,309.71409395732917,309.653627040796,None,f,0.572847789619118,309.653627040796,None,307.65534578845836,None,307.65534578845836,None,307.65534578845836,None,,,,,,,,,,,,,,,,,delete,001,2020_Aug_06_2144,sonority,2020.1.3,59.420832865226416,
novelaudio/36_pipapa1.wav,novelaudio/36_pipapa2.wav,pngimages/36_microwave.png,2,,,,,,,,,,,,,0,42,42,42,,,,,,,,,,,,,,,,,,,,,,,,,,,,,,,,,,,,,,,,,,,,,,,,,,,,,,,,,,,,,,,,,,,,,,,,,,,,,,,310.3502595491242,None,310.35560782952234,311.38433228619397,311.36006328254007,None,311.3482578045456,None,310.35560782952234,311.38433228619397,311.36006328254007,312.3685830149334,312.3685830149334,None,j,0.92180264624767,312.3685830149334,None,310.35560782952234,None,310.35560782952234,None,310.35560782952234,None,,,,,,,,,,,,,,,,,delete,001,2020_Aug_06_2144,sonority,2020.1.3,59.420832865226416,
novelaudio/44_pokato1.wav,novelaudio/44_pokato2.wav,pngimages/44_envelope.png,2,,,,,,,,,,,,,0,43,43,43,,,,,,,,,,,,,,,,,,,,,,,,,,,,,,,,,,,,,,,,,,,,,,,,,,,,,,,,,,,,,,,,,,,,,,,,,,,,,,,313.39682888786774,None,313.4062353686895,314.42069293628447,314.39814305794425,None,314.39535571893214,None,313.4062353686895,314.42069293628447,314.39814305794425,315.4166479136329,315.4166479136329,None,j,0.5503281175624579,315.4166479136329,None,313.4062353686895,None,313.4062353686895,None,313.4062353686895,None,,,,,,,,,,,,,,,,,delete,001,2020_Aug_06_2144,sonority,2020.1.3,59.420832865226416,
novelaudio/42_tokota3.wav,novelaudio/42_tokota2.wav,pngimages/42_harp.png,1,,,,,,,,,,,,,0,44,44,44,,,,,,,,,,,,,,,,,,,,,,,,,,,,,,,,,,,,,,,,,,,,,,,,,,,,,,,,,,,,,,,,,,,,,,,,,,,,,,,316.10112794691236,None,316.1087300449144,317.1440474393312,317.115800622385,None,317.10508937344423,None,316.1087300449144,317.1440474393312,317.115800622385,318.1399250125978,318.11368616996333,None,j,0.204034827882424,318.11368616996333,None,316.1087300449144,None,316.1087300449144,None,316.1087300449144,None,,,,,,,,,,,,,,,,,delete,001,2020_Aug_06_2144,sonority,2020.1.3,59.420832865226416,
novelaudio/39_kotipa2.wav,novelaudio/39_kotipa3.wav,pngimages/39_fork.png,2,,,,,,,,,,,,,0,45,45,45,,,,,,,,,,,,,,,,,,,,,,,,,,,,,,,,,,,,,,,,,,,,,,,,,,,,,,,,,,,,,,,,,,,,,,,,,,,,,,,318.403400681098,None,318.40521741099656,319.41721013118513,319.39288373547606,None,319.3847532510059,None,318.40521741099656,319.41721013118513,319.39288373547606,320.3999996224884,320.3999996224884,None,j,0.06322363344952464,320.3999996224884,None,318.40521741099656,None,318.40521741099656,None,318.40521741099656,None,,,,,,,,,,,,,,,,,delete,001,2020_Aug_06_2144,sonority,2020.1.3,59.420832865226416,
novelaudio/35_titato3.wav,novelaudio/35_titato2.wav,pngimages/35_skillet.png,2,,,,,,,,,,,,,0,46,46,46,,,,,,,,,,,,,,,,,,,,,,,,,,,,,,,,,,,,,,,,,,,,,,,,,,,,,,,,,,,,,,,,,,,,,,,,,,,,,,,320.5510472202441,None,320.5570094094146,321.59314237814397,321.57240035641007,None,321.5538297640393,None,320.5570094094146,321.59314237814397,321.57240035641007,322.588025781326,322.56381719047204,None,f,0.19145912304520607,322.56381719047204,None,320.5570094094146,None,320.5570094094146,None,320.5570094094146,None,,,,,,,,,,,,,,,,,delete,001,2020_Aug_06_2144,sonority,2020.1.3,59.420832865226416,
novelaudio/70_kopati2.wav,novelaudio/70_kopati1.wav,pngimages/70_hand.png,1,,,,,,,,,,,,,0,47,47,47,,,,,,,,,,,,,,,,,,,,,,,,,,,,,,,,,,,,,,,,,,,,,,,,,,,,,,,,,,,,,,,,,,,,,,,,,,,,,,,322.87851010395684,None,322.8757521410007,323.8722323330585,323.8595882859081,None,323.8529888915597,None,322.8757521410007,323.8722323330585,323.8595882859081,324.8725917900447,324.8585004757624,None,f,0.1859033997170627,324.8585004757624,None,322.8757521410007,None,322.8757521410007,None,322.8757521410007,None,,,,,,,,,,,,,,,,,delete,001,2020_Aug_06_2144,sonority,2020.1.3,59.420832865226416,
novelaudio/80_tatato2.wav,novelaudio/80_tatato1.wav,pngimages/80_dog.png,2,,,,,,,,,,,,,0,48,48,48,,,,,,,,,,,,,,,,,,,,,,,,,,,,,,,,,,,,,,,,,,,,,,,,,,,,,,,,,,,,,,,,,,,,,,,,,,,,,,,325.19141275617295,None,325.19137303484604,326.2175189922564,326.1911544154864,None,326.1742840691237,None,325.19137303484604,326.2175189922564,326.1911544154864,327.20737452991307,327.20737452991307,None,j,0.08376062894240022,327.20737452991307,None,325.19137303484604,None,325.19137303484604,None,325.19137303484604,None,,,,,,,,,,,,,,,,,delete,001,2020_Aug_06_2144,sonority,2020.1.3,59.420832865226416,
novelaudio/49_tatopi2.wav,novelaudio/49_tatopi1.wav,pngimages/49_calculator.png,2,,,,,,,,,,,,,0,49,49,49,,,,,,,,,,,,,,,,,,,,,,,,,,,,,,,,,,,,,,,,,,,,,,,,,,,,,,,,,,,,,,,,,,,,,,,,,,,,,,,327.48963763567156,None,327.48569535277784,328.5126130855642,328.47972655599006,None,328.46078329139857,None,327.48569535277784,328.5126130855642,328.47972655599006,329.4900212956127,329.4799685853068,None,j,0.28253688965924084,329.4799685853068,None,327.48569535277784,None,327.48569535277784,None,327.48569535277784,None,,,,,,,,,,,,,,,,,delete,001,2020_Aug_06_2144,sonority,2020.1.3,59.420832865226416,
novelaudio/40_kototi1.wav,novelaudio/40_kototi2.wav,pngimages/40_spoon.png,1,,,,,,,,,,,,,0,50,50,50,,,,,,,,,,,,,,,,,,,,,,,,,,,,,,,,,,,,,,,,,,,,,,,,,,,,,,,,,,,,,,,,,,,,,,,,,,,,,,,329.86535753135104,None,329.86517912428826,330.87785073486157,330.87785073486157,None,330.8693339852849,None,329.86517912428826,330.87785073486157,330.87785073486157,None,331.8554881364107,None,f,0.008668121648952365,331.8554881364107,None,329.86517912428826,None,329.86517912428826,None,329.86517912428826,None,,,,,,,,,,,,,,,,,delete,001,2020_Aug_06_2144,sonority,2020.1.3,59.420832865226416,
novelaudio/58_kipoki3.wav,novelaudio/58_kipoki2.wav,pngimages/58_nail.png,2,,,,,,,,,,,,,0,51,51,51,,,,,,,,,,,,,,,,,,,,,,,,,,,,,,,,,,,,,,,,,,,,,,,,,,,,,,,,,,,,,,,,,,,,,,,,,,,,,,,331.96617990208324,None,331.9572933500167,332.98496473394334,332.9614006737247,None,332.9517591111595,None,331.9572933500167,332.98496473394334,332.9614006737247,333.98598080384545,333.9602622676175,None,f,0.6438862124923617,333.9602622676175,None,331.9572933500167,None,331.9572933500167,None,331.9572933500167,None,,,,,,,,,,,,,,,,,delete,001,2020_Aug_06_2144,sonority,2020.1.3,59.420832865226416,
novelaudio/69_kotota1.wav,novelaudio/69_kotota3.wav,pngimages/69_tooth.png,2,,,,,,,,,,,,,0,52,52,52,,,,,,,,,,,,,,,,,,,,,,,,,,,,,,,,,,,,,,,,,,,,,,,,,,,,,,,,,,,,,,,,,,,,,,,,,,,,,,,334.718194635259,None,334.71465353202075,335.7287293651607,335.7054832279682,None,335.69802030643916,None,334.71465353202075,335.7287293651607,335.7054832279682,336.736849617213,336.71485213935375,None,j,0.3274342631921172,336.71485213935375,None,334.71465353202075,None,334.71465353202075,None,334.71465353202075,None,,,,,,,,,,,,,,,,,delete,001,2020_Aug_06_2144,sonority,2020.1.3,59.420832865226416,
novelaudio/68_pokopo3.wav,novelaudio/68_pokopo1.wav,pngimages/68_heart.png,2,,,,,,,,,,,,,0,53,53,53,,,,,,,,,,,,,,,,,,,,,,,,,,,,,,,,,,,,,,,,,,,,,,,,,,,,,,,,,,,,,,,,,,,,,,,,,,,,,,,337.13608860305976,None,337.13984232232906,338.1637930253055,338.13803257769905,None,338.1320777137531,None,337.13984232232906,338.1637930253055,338.13803257769905,339.1549497062806,339.13637348776683,None,f,1.2362352933268994,339.13637348776683,None,337.13984232232906,None,337.13984232232906,None,337.13984232232906,None,,,,,,,,,,,,,,,,,delete,001,2020_Aug_06_2144,sonority,2020.1.3,59.420832865226416,
,,,,,,,,,,,,,,,,,,,,,,,,,,,,,,,,,,,,,,,,,,,,,,,,,,,,,,,,,,,,,,,,,,,,,,,,,,,,,,,,,,,,,,,,,,,,,,,,,,,,,,,,,,,,,,,,,,,,,,,,,,escape,3.766357176238671,340.41796264983714,None,,,,,,,,,,,,,delete,001,2020_Aug_06_2144,sonority,2020.1.3,59.420832865226416,
,,,,,,,,,,,,,,,,,,,,,,,,,,,,,,,,,,,,,,,,,,,,,,,,,,,,,,,,,,,,,,,,,,,,,,,,,,,,,,,,,,,,,,,,,,,,,,,,,,,,,,,,,,,,,,,,,,,,,,,,,,,,,,340.41796264983714,None,None,None,None,None,None,None,None,None,None,None,,,,,,,
