condFile,numWords,condFiles,testFiles,audioTrue,imageTrue,audioFalse,imageFalse,truePos,falsePos,alltrian1.thisRepN,alltrian1.thisTrialN,alltrian1.thisN,alltrian1.thisIndex,trial1phases.thisRepN,trial1phases.thisTrialN,trial1phases.thisN,trial1phases.thisIndex,train1Words.thisRepN,train1Words.thisTrialN,train1Words.thisN,train1Words.thisIndex,train1Questions.thisRepN,train1Questions.thisTrialN,train1Questions.thisN,train1Questions.thisIndex,alltrain2.thisRepN,alltrain2.thisTrialN,alltrain2.thisN,alltrain2.thisIndex,trial2phases.thisRepN,trial2phases.thisTrialN,trial2phases.thisN,trial2phases.thisIndex,train2Words.thisRepN,train2Words.thisTrialN,train2Words.thisN,train2Words.thisIndex,train2Questions.thisRepN,train2Questions.thisTrialN,train2Questions.thisN,train2Questions.thisIndex,instructions.started,instructions.stopped,train1Type.started,train1Type.stopped,skipTrain1Type.keys,skipTrain1Type.rt,skipTrain1Type.started,skipTrain1Type.stopped,train1QuestText.started,train1QuestText.stopped,train1QuestAdvance.keys,train1QuestAdvance.rt,train1QuestAdvance.started,train1QuestAdvance.stopped,stimulitest1.started,stimulitest1.stopped,correct.started,correct.stopped,incorrect.started,incorrect.stopped,train1Response.keys,train1Response.rt,train1Response.started,train1Response.stopped,chooseImageTrain1.started,chooseImageTrain1.stopped,train1F.started,train1F.stopped,train1J.started,train1J.stopped,train2warning3.started,train2warning3.stopped,train2warning2.started,train2warning2.stopped,train2warning1.started,train2warning1.stopped,skipTrain2Instr.keys,skipTrain2Instr.rt,skipTrain2Instr.started,skipTrain2Instr.stopped,train2Type.started,train2Type.stopped,skipTrain2Type.keys,skipTrain2Type.rt,skipTrain2Type.started,skipTrain2Type.stopped,train2QuestText.started,train2QuestText.stopped,train2QuestAdvance.keys,train2QuestAdvance.rt,train2QuestAdvance.started,train2QuestAdvance.stopped,participant,session,date,expName,psychopyVersion,frameRate,
aoiConditions/train1P1LoopCondition.xlsx,two,aoiConditions/train1P1Block1.xlsx,aoiConditions/train1P1Block1Test.xlsx,trainingaudio/01_kitipi1.wav,pngimages/01_gift.png,trainingaudio/17_kotako2.wav,pngimages/17_cracker.png,-0.5,0.5,0,0,0,0,0,0,0,0,,,,,0,0,0,0,,,,,,,,,,,,,,,,,18.4348412649706,None,20.09561628708616,None,g,1.8207488181069493,20.09561628708616,None,21.97329106926918,None,g,2.392907900735736,21.97329106926918,None,24.896208900120108,None,24.936622690875083,None,24.936622690875083,None,f,0.9358486505225301,25.89665274647996,None,24.936622690875083,None,25.89665274647996,None,25.89665274647996,None,,,,,,,,,,,,,,,,,,,,,,,emptytest,001,2020_Aug_11_1958,sonority,2020.1.3,59.4718038333964,
aoiConditions/train1P1LoopCondition.xlsx,two,aoiConditions/train1P1Block1.xlsx,aoiConditions/train1P1Block1Test.xlsx,,,,,,,0,0,0,0,0,0,0,0,,,,,,,,,,,,,,,,,,,,,,,,,,,,,,,,,,,,,,,,,,,,,,,,,,,,,,,,,,,,,,,,,,,,,,,,,,,,,emptytest,001,2020_Aug_11_1958,sonority,2020.1.3,59.4718038333964,
aoiConditions/train1P1LoopCondition.xlsx,two,aoiConditions/train1P1Block2.xlsx,aoiConditions/train1P1Block2Test.xlsx,trainingaudio/06_titoka3.wav,pngimages/06_tent.png,trainingaudio/05_titopo2.wav,pngimages/05_megaphone.png,-0.5,0.5,0,0,0,0,0,1,1,1,,,,,0,0,0,0,,,,,,,,,,,,,,,,,,,,,,,,,26.871013124473393,None,g,0.9463876844383776,26.871013124473393,None,28.348178361635654,None,28.3486712933518,None,28.3486712933518,None,f,-0.03352539613842964,29.349150443449616,None,28.3486712933518,None,29.349150443449616,None,29.349150443449616,None,,,,,,,,,,,,,,,,,,,,,,,emptytest,001,2020_Aug_11_1958,sonority,2020.1.3,59.4718038333964,
aoiConditions/train1P1LoopCondition.xlsx,two,aoiConditions/train1P1Block2.xlsx,aoiConditions/train1P1Block2Test.xlsx,,,,,,,0,0,0,0,0,1,1,1,,,,,,,,,,,,,,,,,,,,,,,,,,,,,,,,,,,,,,,,,,,,,,,,,,,,,,,,,,,,,,,,,,,,,,,,,,,,,emptytest,001,2020_Aug_11_1958,sonority,2020.1.3,59.4718038333964,
aoiConditions/train1P1LoopCondition.xlsx,two,aoiConditions/train1P1Block3.xlsx,aoiConditions/train1P1Block3Test.xlsx,trainingaudio/26_kapako1.wav,pngimages/26_pineapple.png,trainingaudio/03_kikita3.wav,pngimages/03_box.png,0.5,-0.5,0,0,0,0,0,2,2,2,,,,,0,0,0,0,,,,,,,,,,,,,,,,,,,,,,,,,29.376439715269953,None,g,0.4403101447969675,29.376439715269953,None,30.369322884455322,None,30.368279062211514,None,30.368279062211514,None,j,0.1158572593703866,31.370643850881606,None,30.368279062211514,None,31.370643850881606,None,31.370643850881606,None,,,,,,,,,,,,,,,,,,,,,,,emptytest,001,2020_Aug_11_1958,sonority,2020.1.3,59.4718038333964,
aoiConditions/train1P1LoopCondition.xlsx,two,aoiConditions/train1P1Block3.xlsx,aoiConditions/train1P1Block3Test.xlsx,,,,,,,0,0,0,0,0,2,2,2,,,,,,,,,,,,,,,,,,,,,,,,,,,,,,,,,,,,,,,,,,,,,,,,,,,,,,,,,,,,,,,,,,,,,,,,,,,,,emptytest,001,2020_Aug_11_1958,sonority,2020.1.3,59.4718038333964,
aoiConditions/train1P1LoopCondition.xlsx,two,aoiConditions/train1P1Block4.xlsx,aoiConditions/train1P1Block4Test.xlsx,trainingaudio/11_tokiko1.wav,pngimages/11_compass.png,trainingaudio/25_tapapi1.wav,pngimages/25_apple.png,0.5,-0.5,0,0,0,0,0,3,3,3,,,,,0,0,0,0,,,,,,,,,,,,,,,,,,,,,,,,,31.517599794548005,None,j,0.37471832474693656,31.517599794548005,None,32.43524433262646,None,32.435295494738966,None,32.435295494738966,None,j,0.7702409722842276,33.43594380095601,None,32.435295494738966,None,33.43594380095601,None,33.43594380095601,None,,,,,,,,,,,,,,,,,,,,,,,emptytest,001,2020_Aug_11_1958,sonority,2020.1.3,59.4718038333964,
aoiConditions/train1P1LoopCondition.xlsx,two,aoiConditions/train1P1Block4.xlsx,aoiConditions/train1P1Block4Test.xlsx,,,,,,,0,0,0,0,0,3,3,3,,,,,,,,,,,,,,,,,,,,,,,,,,,,,,,,,,,,,,,,,,,,,,,,,,,,,,,,,,,,,,,,,,,,,,,,,,,,,emptytest,001,2020_Aug_11_1958,sonority,2020.1.3,59.4718038333964,
aoiConditions/train1P1LoopCondition.xlsx,two,aoiConditions/train1P1Block5.xlsx,aoiConditions/train1P1Block5Test.xlsx,trainingaudio/16_kokapi2.wav,pngimages/16_icecream.png,trainingaudio/12_pokika3.wav,pngimages/12_pie.png,0.5,-0.5,0,0,0,0,0,4,4,4,,,,,0,0,0,0,,,,,,,,,,,,,,,,,,,,,,,,,34.24793576588854,None,j,0.4103173944167793,34.24793576588854,None,35.24021254023537,None,35.23904260620475,None,35.23904260620475,None,j,0.11004629172384739,36.23779847752303,None,35.23904260620475,None,36.23779847752303,None,36.23779847752303,None,,,,,,,,,,,,,,,,,,,,,,,emptytest,001,2020_Aug_11_1958,sonority,2020.1.3,59.4718038333964,
aoiConditions/train1P1LoopCondition.xlsx,two,aoiConditions/train1P1Block5.xlsx,aoiConditions/train1P1Block5Test.xlsx,,,,,,,0,0,0,0,0,4,4,4,,,,,,,,,,,,,,,,,,,,,,,,,,,,,,,,,,,,,,,,,,,,,,,,,,,,,,,,,,,,,,,,,,,,,,,,,,,,,emptytest,001,2020_Aug_11_1958,sonority,2020.1.3,59.4718038333964,
aoiConditions/train1P1LoopCondition.xlsx,two,aoiConditions/train1P1Block6.xlsx,aoiConditions/train1P1Block6Test.xlsx,trainingaudio/14_pokoto1.wav,pngimages/14_coffee.png,trainingaudio/13_kopopi1.wav,pngimages/13_toast.png,-0.5,0.5,0,0,0,0,0,5,5,5,,,,,0,0,0,0,,,,,,,,,,,,,,,,,,,,,,,,,36.381063946988434,None,j,0.2400001510977745,36.381063946988434,None,37.15525913387537,None,37.15615683188662,None,37.15615683188662,None,f,0.18435531854629517,38.156450589653105,None,37.15615683188662,None,38.156450589653105,None,38.156450589653105,None,,,,,,,,,,,,,,,,,,,,,,,emptytest,001,2020_Aug_11_1958,sonority,2020.1.3,59.4718038333964,
aoiConditions/train1P1LoopCondition.xlsx,two,aoiConditions/train1P1Block6.xlsx,aoiConditions/train1P1Block6Test.xlsx,,,,,,,0,0,0,0,0,5,5,5,,,,,,,,,,,,,,,,,,,,,,,,,,,,,,,,,,,,,,,,,,,,,,,,,,,,,,,,,,,,,,,,,,,,,,,,,,,,,emptytest,001,2020_Aug_11_1958,sonority,2020.1.3,59.4718038333964,
aoiConditions/train1P1LoopCondition.xlsx,two,aoiConditions/train1P1Block7.xlsx,aoiConditions/train1P1Block7Test.xlsx,trainingaudio/10_tokiti1.wav,pngimages/10_backpack.png,trainingaudio/15_kopota3.wav,pngimages/15_barrel.png,0.5,-0.5,0,0,0,0,0,6,6,6,,,,,0,0,0,0,,,,,,,,,,,,,,,,,,,,,,,,,38.36684991931543,None,f,0.22797495871782303,38.36684991931543,None,39.19414126789197,None,39.19582848763093,None,39.19582848763093,None,None,,40.191972255241126,None,39.19582848763093,None,40.191972255241126,None,40.191972255241126,None,,,,,,,,,,,,,,,,,,,,,,,emptytest,001,2020_Aug_11_1958,sonority,2020.1.3,59.4718038333964,
aoiConditions/train1P1LoopCondition.xlsx,two,aoiConditions/train1P1Block7.xlsx,aoiConditions/train1P1Block7Test.xlsx,,,,,,,0,0,0,0,0,6,6,6,,,,,,,,,,,,,,,,,,,,,,,,,,,,,,,,,,,,,,,,,,,,,,,,,,,,,,,,,,,,,,,,,,,,,,,,,,,,,emptytest,001,2020_Aug_11_1958,sonority,2020.1.3,59.4718038333964,
aoiConditions/train1P1LoopCondition.xlsx,two,aoiConditions/train1P1Block8.xlsx,aoiConditions/train1P1Block8Test.xlsx,trainingaudio/02_pitito3.wav,pngimages/02_pallet.png,trainingaudio/07_pitapi2.wav,pngimages/07_suitcase.png,0.5,-0.5,0,0,0,0,0,7,7,7,,,,,0,0,0,0,,,,,,,,,,,,,,,,,,,,,,,,,46.20589705649763,None,j,0.8587696910835803,46.20589705649763,None,47.598100202251224,None,47.597670326475054,None,47.597670326475054,None,None,,48.59857010142878,None,47.597670326475054,None,48.59857010142878,None,48.59857010142878,None,,,,,,,,,,,,,,,,,,,,,,,emptytest,001,2020_Aug_11_1958,sonority,2020.1.3,59.4718038333964,
aoiConditions/train1P1LoopCondition.xlsx,two,aoiConditions/train1P1Block8.xlsx,aoiConditions/train1P1Block8Test.xlsx,,,,,,,0,0,0,0,0,7,7,7,,,,,,,,,,,,,,,,,,,,,,,,,,,,,,,,,,,,,,,,,,,,,,,,,,,,,,,,,,,,,,,,,,,,,,,,,,,,,emptytest,001,2020_Aug_11_1958,sonority,2020.1.3,59.4718038333964,
aoiConditions/train1P1LoopCondition.xlsx,two,aoiConditions/train1P1Block9.xlsx,aoiConditions/train1P1Block9Test.xlsx,trainingaudio/94_kipipi1.wav,pngimages/94_house.png,trainingaudio/20_tatito1.wav,pngimages/20_pizza.png,0.5,-0.5,0,0,0,0,0,8,8,8,,,,,0,0,0,0,,,,,,,,,,,,,,,,,,,,,,,,,54.62849715305492,None,j,2.0489261602051556,54.62849715305492,None,57.23868145011365,None,57.23897464154288,None,57.23897464154288,None,j,2.9547930103726685,58.23945303633809,None,57.23897464154288,None,58.23945303633809,None,58.23945303633809,None,,,,,,,,,,,,,,,,,,,,,,,emptytest,001,2020_Aug_11_1958,sonority,2020.1.3,59.4718038333964,
aoiConditions/train1P1LoopCondition.xlsx,two,aoiConditions/train1P1Block9.xlsx,aoiConditions/train1P1Block9Test.xlsx,,,,,,,0,0,0,0,0,8,8,8,,,,,,,,,,,,,,,,,,,,,,,,,,,,,,,,,,,,,,,,,,,,,,,,,,,,,,,,,,,,,,,,,,,,,,,,,,,,,emptytest,001,2020_Aug_11_1958,sonority,2020.1.3,59.4718038333964,
aoiConditions/train1P1LoopCondition.xlsx,two,aoiConditions/train1P1Block10.xlsx,aoiConditions/train1P1Block10Test.xlsx,trainingaudio/04_kitoti2.wav,pngimages/04_ladder.png,trainingaudio/21_papika1.wav,pngimages/21_cheese.png,0.5,-0.5,0,0,0,0,0,9,9,9,,,,,0,0,0,0,,,,,,,,,,,,,,,,,,,,,,,,,61.23453353671357,None,j,0.43012490402907133,61.23453353671357,None,62.22638100162148,None,62.22681729635224,None,62.22681729635224,None,j,0.7550822370685637,63.22936370084062,None,62.22681729635224,None,63.22936370084062,None,63.22936370084062,None,,,,,,,,,,,,,,,,,,,,,,,emptytest,001,2020_Aug_11_1958,sonority,2020.1.3,59.4718038333964,
aoiConditions/train1P1LoopCondition.xlsx,two,aoiConditions/train1P1Block10.xlsx,aoiConditions/train1P1Block10Test.xlsx,,,,,,,0,0,0,0,0,9,9,9,,,,,,,,,,,,,,,,,,,,,,,,,,,,,,,,,,,,,,,,,,,,,,,,,,,,,,,,,,,,,,,,,,,,,,,,,,,,,emptytest,001,2020_Aug_11_1958,sonority,2020.1.3,59.4718038333964,
aoiConditions/train1P1LoopCondition.xlsx,two,aoiConditions/train1P1Block11.xlsx,aoiConditions/train1P1Block11Test.xlsx,trainingaudio/27_pakapa1.wav,pngimages/27_kiwi.png,trainingaudio/23_patoko1.wav,pngimages/23_lemon.png,0.5,-0.5,0,0,0,0,0,10,10,10,,,,,0,0,0,0,,,,,,,,,,,,,,,,,,,,,,,,,64.01848446624354,None,j,0.26759375305846334,64.01848446624354,None,64.85220752572641,None,64.86070743529126,None,64.86070743529126,None,j,-1.0223259730264544,65.8460505050607,None,64.86070743529126,None,65.8460505050607,None,65.8460505050607,None,,,,,,,,,,,,,,,,,,,,,,,emptytest,001,2020_Aug_11_1958,sonority,2020.1.3,59.4718038333964,
aoiConditions/train1P1LoopCondition.xlsx,two,aoiConditions/train1P1Block11.xlsx,aoiConditions/train1P1Block11Test.xlsx,,,,,,,0,0,0,0,0,10,10,10,,,,,,,,,,,,,,,,,,,,,,,,,,,,,,,,,,,,,,,,,,,,,,,,,,,,,,,,,,,,,,,,,,,,,,,,,,,,,emptytest,001,2020_Aug_11_1958,sonority,2020.1.3,59.4718038333964,
aoiConditions/train1P1LoopCondition.xlsx,two,aoiConditions/train1P1Block12.xlsx,aoiConditions/train1P1Block12Test.xlsx,trainingaudio/09_tipata2.wav,pngimages/09_plane.png,trainingaudio/24_takopa1.wav,pngimages/24_banana.png,-0.5,0.5,0,0,0,0,0,11,11,11,,,,,0,0,0,0,,,,,,,,,,,,,,,,,,,,,,,,,65.87174072302878,None,j,1.1165104741230607,65.87174072302878,None,67.61414247620851,None,67.61452062334865,None,67.61452062334865,None,j,0.00923411501571536,68.61513003893197,None,67.61452062334865,None,68.61513003893197,None,68.61513003893197,None,,,,,,,,,,,,,,,,,,,,,,,emptytest,001,2020_Aug_11_1958,sonority,2020.1.3,59.4718038333964,
aoiConditions/train1P1LoopCondition.xlsx,two,aoiConditions/train1P1Block12.xlsx,aoiConditions/train1P1Block12Test.xlsx,,,,,,,0,0,0,0,0,11,11,11,,,,,,,,,,,,,,,,,,,,,,,,,,,,,,,,,,,,,,,,,,,,,,,,,,,,,,,,,,,,,,,,,,,,,,,,,,,,,emptytest,001,2020_Aug_11_1958,sonority,2020.1.3,59.4718038333964,
aoiConditions/train1P1LoopCondition.xlsx,two,aoiConditions/train1P1Block13.xlsx,aoiConditions/train1P1Block13Test.xlsx,trainingaudio/08_tipako2.wav,pngimages/08_bell.png,trainingaudio/22_kakoki1.wav,pngimages/22_egg.png,0.5,-0.5,0,0,0,0,0,12,12,12,,,,,0,0,0,0,,,,,,,,,,,,,,,,,,,,,,,,,68.65678059542552,None,j,0.38456298783421516,68.65678059542552,None,69.61557275205851,None,69.61658825585619,None,69.61658825585619,None,j,4.902606062591076,70.61690089246258,None,69.61658825585619,None,70.61690089246258,None,70.61690089246258,None,,,,,,,,,,,,,,,,,,,,,,,emptytest,001,2020_Aug_11_1958,sonority,2020.1.3,59.4718038333964,
aoiConditions/train1P1LoopCondition.xlsx,two,aoiConditions/train1P1Block13.xlsx,aoiConditions/train1P1Block13Test.xlsx,,,,,,,0,0,0,0,0,12,12,12,,,,,,,,,,,,,,,,,,,,,,,,,,,,,,,,,,,,,,,,,,,,,,,,,,,,,,,,,,,,,,,,,,,,,,,,,,,,,emptytest,001,2020_Aug_11_1958,sonority,2020.1.3,59.4718038333964,
aoiConditions/train1P1LoopCondition.xlsx,two,aoiConditions/train1P1Block14.xlsx,aoiConditions/train1P1Block14Test.xlsx,trainingaudio/19_papipi1.wav,pngimages/19_burger.png,trainingaudio/18_popata2.wav,pngimages/18_donut.png,0.5,-0.5,0,0,0,0,0,13,13,13,,,,,0,0,0,0,,,,,,,,,,,,,,,,,,,,,,,,,75.55050709098577,None,j,0.44324810057878494,75.55050709098577,None,76.52165897665546,None,76.52147603873163,None,76.52147603873163,None,j,-0.13244702527299523,77.52264842716977,None,76.52147603873163,None,77.52264842716977,None,77.52264842716977,None,,,,,,,,,,,,,,,,,,,,,,,emptytest,001,2020_Aug_11_1958,sonority,2020.1.3,59.4718038333964,
aoiConditions/train1P1LoopCondition.xlsx,two,aoiConditions/train1P1Block14.xlsx,aoiConditions/train1P1Block14Test.xlsx,,,,,,,0,0,0,0,0,13,13,13,,,,,,,,,,,,,,,,,,,,,,,,,,,,,,,,,,,,,,,,,,,,,,,,,,,,,,,,,,,,,,,,,,,,,,,,,,,,,emptytest,001,2020_Aug_11_1958,sonority,2020.1.3,59.4718038333964,
aoiConditions/train1P1LoopCondition.xlsx,two,,,,,,,,,0,0,0,0,,,,,,,,,,,,,,,,,,,,,,,,,,,,,,,,,,,,,,,,,,,,,,,,,,,,,,,,,,,,,,,,,,,,,,,,,,,,,,,,,emptytest,001,2020_Aug_11_1958,sonority,2020.1.3,59.4718038333964,
aoiConditions/train1P2LoopCondition.xlsx,four,aoiConditions/train1P2Block1.xlsx,aoiConditions/train1P2Block1Test.xlsx,trainingaudio/15_kopota3.wav,pngimages/15_barrel.png,trainingaudio/13_kopopi1.wav,pngimages/13_toast.png,-0.5,0.5,0,1,1,1,0,0,0,0,,,,,0,0,0,0,,,,,,,,,,,,,,,,,,,77.55507883895189,None,j,1.1402512420900166,77.55507883895189,None,78.74119292851537,None,j,0.3845259854570031,78.74119292851537,None,79.69575316049159,None,79.70764978649095,None,79.70764978649095,None,j,-0.344093503896147,80.69226374756545,None,79.70764978649095,None,80.69226374756545,None,80.69226374756545,None,,,,,,,,,,,,,,,,,,,,,,,emptytest,001,2020_Aug_11_1958,sonority,2020.1.3,59.4718038333964,
aoiConditions/train1P2LoopCondition.xlsx,four,aoiConditions/train1P2Block1.xlsx,aoiConditions/train1P2Block1Test.xlsx,trainingaudio/20_tatito1.wav,pngimages/20_pizza.png,trainingaudio/26_kapako1.wav,pngimages/26_pineapple.png,-0.5,0.5,0,1,1,1,0,0,0,0,,,,,0,1,1,1,,,,,,,,,,,,,,,,,,,,,,,,,,,,,,,81.24207325801254,None,81.24251483893022,None,81.24251483893022,None,j,-0.7352229994721711,82.24368307366967,None,81.24251483893022,None,82.24368307366967,None,82.24368307366967,None,,,,,,,,,,,,,,,,,,,,,,,emptytest,001,2020_Aug_11_1958,sonority,2020.1.3,59.4718038333964,
aoiConditions/train1P2LoopCondition.xlsx,four,aoiConditions/train1P2Block1.xlsx,aoiConditions/train1P2Block1Test.xlsx,,,,,,,0,1,1,1,0,0,0,0,,,,,,,,,,,,,,,,,,,,,,,,,,,,,,,,,,,,,,,,,,,,,,,,,,,,,,,,,,,,,,,,,,,,,,,,,,,,,emptytest,001,2020_Aug_11_1958,sonority,2020.1.3,59.4718038333964,
aoiConditions/train1P2LoopCondition.xlsx,four,aoiConditions/train1P2Block2.xlsx,aoiConditions/train1P2Block2Test.xlsx,trainingaudio/18_popata2.wav,pngimages/18_donut.png,trainingaudio/02_pitito3.wav,pngimages/02_pallet.png,0.5,-0.5,0,1,1,1,0,1,1,1,,,,,0,0,0,0,,,,,,,,,,,,,,,,,,,,,,,,,82.27673687133938,None,j,0.8082320159301162,82.27673687133938,None,83.628804692626,None,83.62816979037598,None,83.62816979037598,None,f,-0.7065359228290617,84.63420768454671,None,83.62816979037598,None,84.63420768454671,None,84.63420768454671,None,,,,,,,,,,,,,,,,,,,,,,,emptytest,001,2020_Aug_11_1958,sonority,2020.1.3,59.4718038333964,
aoiConditions/train1P2LoopCondition.xlsx,four,aoiConditions/train1P2Block2.xlsx,aoiConditions/train1P2Block2Test.xlsx,trainingaudio/25_tapapi1.wav,pngimages/25_apple.png,trainingaudio/22_kakoki1.wav,pngimages/22_egg.png,-0.5,0.5,0,1,1,1,0,1,1,1,,,,,0,1,1,1,,,,,,,,,,,,,,,,,,,,,,,,,,,,,,,85.21201065517963,None,85.21252208855003,None,85.21252208855003,None,j,-0.6894043288193643,86.21264895563945,None,85.21252208855003,None,86.21264895563945,None,86.21264895563945,None,,,,,,,,,,,,,,,,,,,,,,,emptytest,001,2020_Aug_11_1958,sonority,2020.1.3,59.4718038333964,
aoiConditions/train1P2LoopCondition.xlsx,four,aoiConditions/train1P2Block2.xlsx,aoiConditions/train1P2Block2Test.xlsx,,,,,,,0,1,1,1,0,1,1,1,,,,,,,,,,,,,,,,,,,,,,,,,,,,,,,,,,,,,,,,,,,,,,,,,,,,,,,,,,,,,,,,,,,,,,,,,,,,,emptytest,001,2020_Aug_11_1958,sonority,2020.1.3,59.4718038333964,
aoiConditions/train1P2LoopCondition.xlsx,four,aoiConditions/train1P2Block3.xlsx,aoiConditions/train1P2Block3Test.xlsx,trainingaudio/16_kokapi2.wav,pngimages/16_icecream.png,trainingaudio/09_tipata2.wav,pngimages/09_plane.png,-0.5,0.5,0,1,1,1,0,2,2,2,,,,,0,0,0,0,,,,,,,,,,,,,,,,,,,,,,,,,86.23803333286196,None,j,0.4607444382272661,86.23803333286196,None,87.24701541299001,None,87.24738147761673,None,87.24738147761673,None,f,1.2330930661410093,88.24788290448487,None,87.24738147761673,None,88.24788290448487,None,88.24788290448487,None,,,,,,,,,,,,,,,,,,,,,,,emptytest,001,2020_Aug_11_1958,sonority,2020.1.3,59.4718038333964,
aoiConditions/train1P2LoopCondition.xlsx,four,aoiConditions/train1P2Block3.xlsx,aoiConditions/train1P2Block3Test.xlsx,trainingaudio/10_tokiti1.wav,pngimages/10_backpack.png,trainingaudio/23_patoko1.wav,pngimages/23_lemon.png,-0.5,0.5,0,1,1,1,0,2,2,2,,,,,0,1,1,1,,,,,,,,,,,,,,,,,,,,,,,,,,,,,,,89.99925710968674,None,89.99924597097561,None,89.99924597097561,None,None,,91.00014989962801,None,89.99924597097561,None,91.00014989962801,None,91.00014989962801,None,,,,,,,,,,,,,,,,,,,,,,,emptytest,001,2020_Aug_11_1958,sonority,2020.1.3,59.4718038333964,
aoiConditions/train1P2LoopCondition.xlsx,four,aoiConditions/train1P2Block3.xlsx,aoiConditions/train1P2Block3Test.xlsx,,,,,,,0,1,1,1,0,2,2,2,,,,,,,,,,,,,,,,,,,,,,,,,,,,,,,,,,,,,,,,,,,,,,,,,,,,,,,,,,,,,,,,,,,,,,,,,,,,,emptytest,001,2020_Aug_11_1958,sonority,2020.1.3,59.4718038333964,
aoiConditions/train1P2LoopCondition.xlsx,four,aoiConditions/train1P2Block4.xlsx,aoiConditions/train1P2Block4Test.xlsx,trainingaudio/24_takopa1.wav,pngimages/24_banana.png,trainingaudio/06_titoka3.wav,pngimages/06_tent.png,-0.5,0.5,0,1,1,1,0,3,3,3,,,,,0,0,0,0,,,,,,,,,,,,,,,,,,,,,,,,,97.01173974107951,None,h,1.245522269513458,97.01173974107951,None,98.80678984625266,None,98.80694219982252,None,98.80694219982252,None,f,0.08568213740363717,99.80762788653374,None,98.80694219982252,None,99.80762788653374,None,99.80762788653374,None,,,,,,,,,,,,,,,,,,,,,,,emptytest,001,2020_Aug_11_1958,sonority,2020.1.3,59.4718038333964,
aoiConditions/train1P2LoopCondition.xlsx,four,aoiConditions/train1P2Block4.xlsx,aoiConditions/train1P2Block4Test.xlsx,trainingaudio/03_kikita3.wav,pngimages/03_box.png,trainingaudio/94_kipipi1.wav,pngimages/94_house.png,0.5,-0.5,0,1,1,1,0,3,3,3,,,,,0,1,1,1,,,,,,,,,,,,,,,,,,,,,,,,,,,,,,,100.45826014559717,None,100.45816140808165,None,100.45816140808165,None,j,0.05615079076960683,101.45937155466527,None,100.45816140808165,None,101.45937155466527,None,101.45937155466527,None,,,,,,,,,,,,,,,,,,,,,,,emptytest,001,2020_Aug_11_1958,sonority,2020.1.3,59.4718038333964,
aoiConditions/train1P2LoopCondition.xlsx,four,aoiConditions/train1P2Block4.xlsx,aoiConditions/train1P2Block4Test.xlsx,,,,,,,0,1,1,1,0,3,3,3,,,,,,,,,,,,,,,,,,,,,,,,,,,,,,,,,,,,,,,,,,,,,,,,,,,,,,,,,,,,,,,,,,,,,,,,,,,,,emptytest,001,2020_Aug_11_1958,sonority,2020.1.3,59.4718038333964,
aoiConditions/train1P2LoopCondition.xlsx,four,aoiConditions/train1P2Block5.xlsx,aoiConditions/train1P2Block5Test.xlsx,trainingaudio/27_pakapa1.wav,pngimages/27_kiwi.png,trainingaudio/12_pokika3.wav,pngimages/12_pie.png,0.5,-0.5,0,1,1,1,0,4,4,4,,,,,0,0,0,0,,,,,,,,,,,,,,,,,,,,,,,,,101.55330949556082,None,j,0.5830987296067178,101.55330949556082,None,102.74315427206457,None,102.74440953927115,None,102.74440953927115,None,j,0.10675076628103852,103.74485093122348,None,102.74440953927115,None,103.74485093122348,None,103.74485093122348,None,,,,,,,,,,,,,,,,,,,,,,,emptytest,001,2020_Aug_11_1958,sonority,2020.1.3,59.4718038333964,
aoiConditions/train1P2LoopCondition.xlsx,four,aoiConditions/train1P2Block5.xlsx,aoiConditions/train1P2Block5Test.xlsx,trainingaudio/05_titopo2.wav,pngimages/05_megaphone.png,trainingaudio/14_pokoto1.wav,pngimages/14_coffee.png,-0.5,0.5,0,1,1,1,0,4,4,4,,,,,0,1,1,1,,,,,,,,,,,,,,,,,,,,,,,,,,,,,,,104.39460531491787,None,104.39447486074641,None,104.39447486074641,None,f,4.144420489203185,105.39585982682183,None,104.39447486074641,None,105.39585982682183,None,105.39585982682183,None,,,,,,,,,,,,,,,,,,,,,,,emptytest,001,2020_Aug_11_1958,sonority,2020.1.3,59.4718038333964,
aoiConditions/train1P2LoopCondition.xlsx,four,aoiConditions/train1P2Block5.xlsx,aoiConditions/train1P2Block5Test.xlsx,,,,,,,0,1,1,1,0,4,4,4,,,,,,,,,,,,,,,,,,,,,,,,,,,,,,,,,,,,,,,,,,,,,,,,,,,,,,,,,,,,,,,,,,,,,,,,,,,,,emptytest,001,2020_Aug_11_1958,sonority,2020.1.3,59.4718038333964,
aoiConditions/train1P2LoopCondition.xlsx,four,aoiConditions/train1P2Block6.xlsx,aoiConditions/train1P2Block6Test.xlsx,trainingaudio/07_pitapi2.wav,pngimages/07_suitcase.png,trainingaudio/04_kitoti2.wav,pngimages/04_ladder.png,0.5,-0.5,0,1,1,1,0,5,5,5,,,,,0,0,0,0,,,,,,,,,,,,,,,,,,,,,,,,,109.57403037277982,None,f,0.3675812929868698,109.57403037277982,None,110.49966602968053,None,110.49943551653996,None,110.49943551653996,None,j,1.68625870347023,111.50199853489175,None,110.49943551653996,None,111.50199853489175,None,111.50199853489175,None,,,,,,,,,,,,,,,,,,,,,,,emptytest,001,2020_Aug_11_1958,sonority,2020.1.3,59.4718038333964,
aoiConditions/train1P2LoopCondition.xlsx,four,aoiConditions/train1P2Block6.xlsx,aoiConditions/train1P2Block6Test.xlsx,trainingaudio/19_papipi1.wav,pngimages/19_burger.png,trainingaudio/17_kotako2.wav,pngimages/17_cracker.png,0.5,-0.5,0,1,1,1,0,5,5,5,,,,,0,1,1,1,,,,,,,,,,,,,,,,,,,,,,,,,,,,,,,113.75405351826922,None,113.75285639846697,None,113.75285639846697,None,j,-0.010191659908741713,114.75437502842396,None,113.75285639846697,None,114.75437502842396,None,114.75437502842396,None,,,,,,,,,,,,,,,,,,,,,,,emptytest,001,2020_Aug_11_1958,sonority,2020.1.3,59.4718038333964,
aoiConditions/train1P2LoopCondition.xlsx,four,aoiConditions/train1P2Block6.xlsx,aoiConditions/train1P2Block6Test.xlsx,,,,,,,0,1,1,1,0,5,5,5,,,,,,,,,,,,,,,,,,,,,,,,,,,,,,,,,,,,,,,,,,,,,,,,,,,,,,,,,,,,,,,,,,,,,,,,,,,,,emptytest,001,2020_Aug_11_1958,sonority,2020.1.3,59.4718038333964,
aoiConditions/train1P2LoopCondition.xlsx,four,aoiConditions/train1P2Block7.xlsx,aoiConditions/train1P2Block7Test.xlsx,trainingaudio/21_papika1.wav,pngimages/21_cheese.png,trainingaudio/01_kitipi1.wav,pngimages/01_gift.png,-0.5,0.5,0,1,1,1,0,6,6,6,,,,,0,0,0,0,,,,,,,,,,,,,,,,,,,,,,,,,114.78818323230371,None,j,0.48232922004535794,114.78818323230371,None,115.82086983285845,None,115.82098858198151,None,115.82098858198151,None,f,-0.11373714311048388,116.82159875240177,None,115.82098858198151,None,116.82159875240177,None,116.82159875240177,None,,,,,,,,,,,,,,,,,,,,,,,emptytest,001,2020_Aug_11_1958,sonority,2020.1.3,59.4718038333964,
aoiConditions/train1P2LoopCondition.xlsx,four,aoiConditions/train1P2Block7.xlsx,aoiConditions/train1P2Block7Test.xlsx,trainingaudio/11_tokiko1.wav,pngimages/11_compass.png,trainingaudio/08_tipako2.wav,pngimages/08_bell.png,0.5,-0.5,0,1,1,1,0,6,6,6,,,,,0,1,1,1,,,,,,,,,,,,,,,,,,,,,,,,,,,,,,,117.35552193000913,None,117.35535598313436,None,117.35535598313436,None,f,-1.308673407882452,118.34652285883203,None,117.35535598313436,None,118.34652285883203,None,118.34652285883203,None,,,,,,,,,,,,,,,,,,,,,,,emptytest,001,2020_Aug_11_1958,sonority,2020.1.3,59.4718038333964,
aoiConditions/train1P2LoopCondition.xlsx,four,aoiConditions/train1P2Block7.xlsx,aoiConditions/train1P2Block7Test.xlsx,,,,,,,0,1,1,1,0,6,6,6,,,,,,,,,,,,,,,,,,,,,,,,,,,,,,,,,,,,,,,,,,,,,,,,,,,,,,,,,,,,,,,,,,,,,,,,,,,,,emptytest,001,2020_Aug_11_1958,sonority,2020.1.3,59.4718038333964,
aoiConditions/train1P2LoopCondition.xlsx,four,,,,,,,,,0,1,1,1,,,,,,,,,,,,,,,,,,,,,,,,,,,,,,,,,,,,,,,,,,,,,,,,,,,,,,,,,,,,,,,,,,,,,,,,,,,,,,,,,emptytest,001,2020_Aug_11_1958,sonority,2020.1.3,59.4718038333964,
,,,,,,,,,,,,,,,,,,,,,,,,,,,,,,,,,,,,,,,,,,,,,,,,,,,,,,,,,,,,,,,,,,,,,,,,118.36615781346336,None,None,None,None,None,f,0.8573046773672104,118.36615781346336,None,,,,,,,,,,,,,emptytest,001,2020_Aug_11_1958,sonority,2020.1.3,59.4718038333964,
,,,,,,,,,,,,,,,,,,,,,,,,,,,,,,,,,,,,,,,,,,,,,,,,,,,,,,,,,,,,,,,,,,,,,,,,,,,,,,,,,,119.26635491102934,None,g,0.5342212775722146,119.26635491102934,None,119.84160940023139,None,g,0.6425646794959903,119.84160940023139,None,,,,,,,
