skipTrain1Type.keys,skipTrain1Type.rt,train1Words.thisRepN,train1Words.thisTrialN,train1Words.thisN,train1Words.thisIndex,train1Words.ran,audio,imageLoc,participant,ID Number,date,expName,psychopyVersion,OS,frameRate,train1QuestAdvance.keys,train1QuestAdvance.rt,break_loop.thisRepN,break_loop.thisTrialN,break_loop.thisN,break_loop.thisIndex,break_loop.ran,train1Response.keys,train1Response.rt,train1Questions.thisRepN,train1Questions.thisTrialN,train1Questions.thisN,train1Questions.thisIndex,train1Questions.ran,audioTrue,imageTrue,currentPhase,imageFalse,truePos,falsePos,trial1phases.thisRepN,trial1phases.thisTrialN,trial1phases.thisN,trial1phases.thisIndex,trial1phases.ran,condFiles,testFiles,alltrain1.thisRepN,alltrain1.thisTrialN,alltrain1.thisN,alltrain1.thisIndex,alltrain1.ran,condFile,numWords,skipTest1Instr.keys,skipTest1Instr.rt,key_resp.keys,key_resp.rt,test1Response.keys,test1Response.rt,test1Loop.thisRepN,test1Loop.thisTrialN,test1Loop.thisN,test1Loop.thisIndex,test1Loop.ran,firstAudio,secondAudio,whichAudio,feedback,skipTest2Instr.keys,skipTest2Instr.rt,key_resp_2.keys,key_resp_2.rt,test2Response.keys,test2Response.rt,test2Loop.thisRepN,test2Loop.thisTrialN,test2Loop.thisN,test2Loop.thisIndex,test2Loop.ran,skipTest3Instr.keys,skipTest3Instr.rt,test3Response.keys,test3Response.rt,test3Loop.thisRepN,test3Loop.thisTrialN,test3Loop.thisN,test3Loop.thisIndex,test3Loop.ran,skipPostTestInstr.keys,skipPostTestInstr.rt,postTestResponse.keys,postTestResponse.rt,postTestLoop.thisRepN,postTestLoop.thisTrialN,postTestLoop.thisN,postTestLoop.thisIndex,postTestLoop.ran,audioA,audioX,audioB,correctLabel,quit.keys,quit.rt
space,5.6662,0,0,0,0,1,trainingaudio/06_titoka3.ogg,pngimages/06_tent.png,Haley Kaylor,1102,2020-11-10_11h57.24.249,experiment,2020.1.3,Linux x86_64,60,,,,,,,,,,,,,,,,,,,,,,,,,,,,,,,,,,,,,,,,,,,,,,,,,,,,,,,,,,,,,,,,,,,,,,,,,,,,,,,,,,,,
,,,,,,,,,Haley Kaylor,1102,2020-11-10_11h57.24.249,experiment,2020.1.3,Linux x86_64,60,space,8.85724,0,0,0,0,1,,,,,,,,,,,,,,,,,,,,,,,,,,,,,,,,,,,,,,,,,,,,,,,,,,,,,,,,,,,,,,,,,,,,,,,,,,,,,
,,,,,,,,,Haley Kaylor,1102,2020-11-10_11h57.24.249,experiment,2020.1.3,Linux x86_64,60,,,,,,,,f,1.65593,0,0,0,0,1,trainingaudio/19_papipi1.ogg,pngimages/19_burger.png,train1P1,pngimages/06_tent.png,-0.5,0.5,,,,,,,,,,,,,,,,,,,,,,,,,,,,,,,,,,,,,,,,,,,,,,,,,,,,,,,,,,,,,,,,
,,,,,,,,,Haley Kaylor,1102,2020-11-10_11h57.24.249,experiment,2020.1.3,Linux x86_64,60,,,,,,,,,,,,,,,,,,,,,0,0,0,0,1,aoiConditions/train1P1Block1.xlsx,aoiConditions/train1P1Block1Test.xlsx,,,,,,,,,,,,,,,,,,,,,,,,,,,,,,,,,,,,,,,,,,,,,,,,,,,,,,,,,
,,0,0,0,0,1,trainingaudio/23_patoko1.ogg,pngimages/23_lemon.png,Haley Kaylor,1102,2020-11-10_11h57.24.249,experiment,2020.1.3,Linux x86_64,60,,,,,,,,,,,,,,,,,,,,,,,,,,,,,,,,,,,,,,,,,,,,,,,,,,,,,,,,,,,,,,,,,,,,,,,,,,,,,,,,,,,,
,,,,,,,,,Haley Kaylor,1102,2020-11-10_11h57.24.249,experiment,2020.1.3,Linux x86_64,60,,,0,0,0,0,1,,,,,,,,,,,,,,,,,,,,,,,,,,,,,,,,,,,,,,,,,,,,,,,,,,,,,,,,,,,,,,,,,,,,,,,,,,,,,
,,,,,,,,,Haley Kaylor,1102,2020-11-10_11h57.24.249,experiment,2020.1.3,Linux x86_64,60,,,,,,,,j,1.037565,0,0,0,0,1,trainingaudio/23_patoko1.ogg,pngimages/23_lemon.png,train1P1,pngimages/22_egg.png,0.5,-0.5,,,,,,,,,,,,,,,,,,,,,,,,,,,,,,,,,,,,,,,,,,,,,,,,,,,,,,,,,,,,,,,,
,,,,,,,,,Haley Kaylor,1102,2020-11-10_11h57.24.249,experiment,2020.1.3,Linux x86_64,60,,,,,,,,,,,,,,,,,,,,,0,1,1,1,1,aoiConditions/train1P1Block2.xlsx,aoiConditions/train1P1Block2Test.xlsx,,,,,,,,,,,,,,,,,,,,,,,,,,,,,,,,,,,,,,,,,,,,,,,,,,,,,,,,,
,,0,0,0,0,1,trainingaudio/25_tapapi1.ogg,pngimages/25_apple.png,Haley Kaylor,1102,2020-11-10_11h57.24.249,experiment,2020.1.3,Linux x86_64,60,,,,,,,,,,,,,,,,,,,,,,,,,,,,,,,,,,,,,,,,,,,,,,,,,,,,,,,,,,,,,,,,,,,,,,,,,,,,,,,,,,,,
,,,,,,,,,Haley Kaylor,1102,2020-11-10_11h57.24.249,experiment,2020.1.3,Linux x86_64,60,,,0,0,0,0,1,,,,,,,,,,,,,,,,,,,,,,,,,,,,,,,,,,,,,,,,,,,,,,,,,,,,,,,,,,,,,,,,,,,,,,,,,,,,,
,,,,,,,,,Haley Kaylor,1102,2020-11-10_11h57.24.249,experiment,2020.1.3,Linux x86_64,60,,,,,,,,j,0.398975,0,0,0,0,1,trainingaudio/26_kapako1.ogg,pngimages/26_pineapple.png,train1P1,pngimages/25_apple.png,0.5,-0.5,,,,,,,,,,,,,,,,,,,,,,,,,,,,,,,,,,,,,,,,,,,,,,,,,,,,,,,,,,,,,,,,
,,,,,,,,,Haley Kaylor,1102,2020-11-10_11h57.24.249,experiment,2020.1.3,Linux x86_64,60,,,,,,,,,,,,,,,,,,,,,0,2,2,2,1,aoiConditions/train1P1Block3.xlsx,aoiConditions/train1P1Block3Test.xlsx,,,,,,,,,,,,,,,,,,,,,,,,,,,,,,,,,,,,,,,,,,,,,,,,,,,,,,,,,
,,0,0,0,0,1,trainingaudio/17_kotako2.ogg,pngimages/17_cracker.png,Haley Kaylor,1102,2020-11-10_11h57.24.249,experiment,2020.1.3,Linux x86_64,60,,,,,,,,,,,,,,,,,,,,,,,,,,,,,,,,,,,,,,,,,,,,,,,,,,,,,,,,,,,,,,,,,,,,,,,,,,,,,,,,,,,,
,,,,,,,,,Haley Kaylor,1102,2020-11-10_11h57.24.249,experiment,2020.1.3,Linux x86_64,60,,,0,0,0,0,1,,,,,,,,,,,,,,,,,,,,,,,,,,,,,,,,,,,,,,,,,,,,,,,,,,,,,,,,,,,,,,,,,,,,,,,,,,,,,
,,,,,,,,,Haley Kaylor,1102,2020-11-10_11h57.24.249,experiment,2020.1.3,Linux x86_64,60,,,,,,,,j,0.270285,0,0,0,0,1,trainingaudio/18_popata2.ogg,pngimages/18_donut.png,train1P1,pngimages/17_cracker.png,0.5,-0.5,,,,,,,,,,,,,,,,,,,,,,,,,,,,,,,,,,,,,,,,,,,,,,,,,,,,,,,,,,,,,,,,
,,,,,,,,,Haley Kaylor,1102,2020-11-10_11h57.24.249,experiment,2020.1.3,Linux x86_64,60,,,,,,,,,,,,,,,,,,,,,0,3,3,3,1,aoiConditions/train1P1Block4.xlsx,aoiConditions/train1P1Block4Test.xlsx,,,,,,,,,,,,,,,,,,,,,,,,,,,,,,,,,,,,,,,,,,,,,,,,,,,,,,,,,
,,0,0,0,0,1,trainingaudio/09_tipata2.ogg,pngimages/09_plane.png,Haley Kaylor,1102,2020-11-10_11h57.24.249,experiment,2020.1.3,Linux x86_64,60,,,,,,,,,,,,,,,,,,,,,,,,,,,,,,,,,,,,,,,,,,,,,,,,,,,,,,,,,,,,,,,,,,,,,,,,,,,,,,,,,,,,
,,,,,,,,,Haley Kaylor,1102,2020-11-10_11h57.24.249,experiment,2020.1.3,Linux x86_64,60,,,0,0,0,0,1,,,,,,,,,,,,,,,,,,,,,,,,,,,,,,,,,,,,,,,,,,,,,,,,,,,,,,,,,,,,,,,,,,,,,,,,,,,,,
,,,,,,,,,Haley Kaylor,1102,2020-11-10_11h57.24.249,experiment,2020.1.3,Linux x86_64,60,,,,,,,,j,0.011025,0,0,0,0,1,trainingaudio/24_takopa1.ogg,pngimages/24_banana.png,train1P1,pngimages/09_plane.png,0.5,-0.5,,,,,,,,,,,,,,,,,,,,,,,,,,,,,,,,,,,,,,,,,,,,,,,,,,,,,,,,,,,,,,,,
,,,,,,,,,Haley Kaylor,1102,2020-11-10_11h57.24.249,experiment,2020.1.3,Linux x86_64,60,,,,,,,,,,,,,,,,,,,,,0,4,4,4,1,aoiConditions/train1P1Block5.xlsx,aoiConditions/train1P1Block5Test.xlsx,,,,,,,,,,,,,,,,,,,,,,,,,,,,,,,,,,,,,,,,,,,,,,,,,,,,,,,,,
,,0,0,0,0,1,trainingaudio/08_tipako2.ogg,pngimages/08_bell.png,Haley Kaylor,1102,2020-11-10_11h57.24.249,experiment,2020.1.3,Linux x86_64,60,,,,,,,,,,,,,,,,,,,,,,,,,,,,,,,,,,,,,,,,,,,,,,,,,,,,,,,,,,,,,,,,,,,,,,,,,,,,,,,,,,,,
,,,,,,,,,Haley Kaylor,1102,2020-11-10_11h57.24.249,experiment,2020.1.3,Linux x86_64,60,,,0,0,0,0,1,,,,,,,,,,,,,,,,,,,,,,,,,,,,,,,,,,,,,,,,,,,,,,,,,,,,,,,,,,,,,,,,,,,,,,,,,,,,,
,,,,,,,,,Haley Kaylor,1102,2020-11-10_11h57.24.249,experiment,2020.1.3,Linux x86_64,60,,,,,,,,f,0.56348,0,0,0,0,1,trainingaudio/08_tipako2.ogg,pngimages/08_bell.png,train1P1,pngimages/03_box.png,-0.5,0.5,,,,,,,,,,,,,,,,,,,,,,,,,,,,,,,,,,,,,,,,,,,,,,,,,,,,,,,,,,,,,,,,
,,,,,,,,,Haley Kaylor,1102,2020-11-10_11h57.24.249,experiment,2020.1.3,Linux x86_64,60,,,,,,,,,,,,,,,,,,,,,0,5,5,5,1,aoiConditions/train1P1Block6.xlsx,aoiConditions/train1P1Block6Test.xlsx,,,,,,,,,,,,,,,,,,,,,,,,,,,,,,,,,,,,,,,,,,,,,,,,,,,,,,,,,
,,0,0,0,0,1,trainingaudio/10_tokiti1.ogg,pngimages/10_backpack.png,Haley Kaylor,1102,2020-11-10_11h57.24.249,experiment,2020.1.3,Linux x86_64,60,,,,,,,,,,,,,,,,,,,,,,,,,,,,,,,,,,,,,,,,,,,,,,,,,,,,,,,,,,,,,,,,,,,,,,,,,,,,,,,,,,,,
,,,,,,,,,Haley Kaylor,1102,2020-11-10_11h57.24.249,experiment,2020.1.3,Linux x86_64,60,,,0,0,0,0,1,,,,,,,,,,,,,,,,,,,,,,,,,,,,,,,,,,,,,,,,,,,,,,,,,,,,,,,,,,,,,,,,,,,,,,,,,,,,,
,,,,,,,,,Haley Kaylor,1102,2020-11-10_11h57.24.249,experiment,2020.1.3,Linux x86_64,60,,,,,,,,j,0.522035,0,0,0,0,1,trainingaudio/13_kopopi1.ogg,pngimages/13_toast.png,train1P1,pngimages/10_backpack.png,0.5,-0.5,,,,,,,,,,,,,,,,,,,,,,,,,,,,,,,,,,,,,,,,,,,,,,,,,,,,,,,,,,,,,,,,
,,,,,,,,,Haley Kaylor,1102,2020-11-10_11h57.24.249,experiment,2020.1.3,Linux x86_64,60,,,,,,,,,,,,,,,,,,,,,0,6,6,6,1,aoiConditions/train1P1Block7.xlsx,aoiConditions/train1P1Block7Test.xlsx,,,,,,,,,,,,,,,,,,,,,,,,,,,,,,,,,,,,,,,,,,,,,,,,,,,,,,,,,
,,0,0,0,0,1,trainingaudio/04_kitoti2.ogg,pngimages/04_ladder.png,Haley Kaylor,1102,2020-11-10_11h57.24.249,experiment,2020.1.3,Linux x86_64,60,,,,,,,,,,,,,,,,,,,,,,,,,,,,,,,,,,,,,,,,,,,,,,,,,,,,,,,,,,,,,,,,,,,,,,,,,,,,,,,,,,,,
,,,,,,,,,Haley Kaylor,1102,2020-11-10_11h57.24.249,experiment,2020.1.3,Linux x86_64,60,,,0,0,0,0,1,,,,,,,,,,,,,,,,,,,,,,,,,,,,,,,,,,,,,,,,,,,,,,,,,,,,,,,,,,,,,,,,,,,,,,,,,,,,,
,,,,,,,,,Haley Kaylor,1102,2020-11-10_11h57.24.249,experiment,2020.1.3,Linux x86_64,60,,,,,,,,f,0.50621,0,0,0,0,1,trainingaudio/12_pokika3.ogg,pngimages/12_pie.png,train1P1,pngimages/04_ladder.png,-0.5,0.5,,,,,,,,,,,,,,,,,,,,,,,,,,,,,,,,,,,,,,,,,,,,,,,,,,,,,,,,,,,,,,,,
,,,,,,,,,Haley Kaylor,1102,2020-11-10_11h57.24.249,experiment,2020.1.3,Linux x86_64,60,,,,,,,,,,,,,,,,,,,,,0,7,7,7,1,aoiConditions/train1P1Block8.xlsx,aoiConditions/train1P1Block8Test.xlsx,,,,,,,,,,,,,,,,,,,,,,,,,,,,,,,,,,,,,,,,,,,,,,,,,,,,,,,,,
,,0,0,0,0,1,trainingaudio/07_pitapi2.ogg,pngimages/07_suitcase.png,Haley Kaylor,1102,2020-11-10_11h57.24.249,experiment,2020.1.3,Linux x86_64,60,,,,,,,,,,,,,,,,,,,,,,,,,,,,,,,,,,,,,,,,,,,,,,,,,,,,,,,,,,,,,,,,,,,,,,,,,,,,,,,,,,,,
,,,,,,,,,Haley Kaylor,1102,2020-11-10_11h57.24.249,experiment,2020.1.3,Linux x86_64,60,,,0,0,0,0,1,,,,,,,,,,,,,,,,,,,,,,,,,,,,,,,,,,,,,,,,,,,,,,,,,,,,,,,,,,,,,,,,,,,,,,,,,,,,,
,,,,,,,,,Haley Kaylor,1102,2020-11-10_11h57.24.249,experiment,2020.1.3,Linux x86_64,60,,,,,,,,f,0.304155,0,0,0,0,1,trainingaudio/02_pitito3.ogg,pngimages/02_pallet.png,train1P1,pngimages/07_suitcase.png,-0.5,0.5,,,,,,,,,,,,,,,,,,,,,,,,,,,,,,,,,,,,,,,,,,,,,,,,,,,,,,,,,,,,,,,,
,,,,,,,,,Haley Kaylor,1102,2020-11-10_11h57.24.249,experiment,2020.1.3,Linux x86_64,60,,,,,,,,,,,,,,,,,,,,,0,8,8,8,1,aoiConditions/train1P1Block9.xlsx,aoiConditions/train1P1Block9Test.xlsx,,,,,,,,,,,,,,,,,,,,,,,,,,,,,,,,,,,,,,,,,,,,,,,,,,,,,,,,,
,,0,0,0,0,1,trainingaudio/01_kitipi1.ogg,pngimages/01_gift.png,Haley Kaylor,1102,2020-11-10_11h57.24.249,experiment,2020.1.3,Linux x86_64,60,,,,,,,,,,,,,,,,,,,,,,,,,,,,,,,,,,,,,,,,,,,,,,,,,,,,,,,,,,,,,,,,,,,,,,,,,,,,,,,,,,,,
,,,,,,,,,Haley Kaylor,1102,2020-11-10_11h57.24.249,experiment,2020.1.3,Linux x86_64,60,,,0,0,0,0,1,,,,,,,,,,,,,,,,,,,,,,,,,,,,,,,,,,,,,,,,,,,,,,,,,,,,,,,,,,,,,,,,,,,,,,,,,,,,,
,,,,,,,,,Haley Kaylor,1102,2020-11-10_11h57.24.249,experiment,2020.1.3,Linux x86_64,60,,,,,,,,f,0.454575,0,0,0,0,1,trainingaudio/01_kitipi1.ogg,pngimages/01_gift.png,train1P1,pngimages/21_cheese.png,-0.5,0.5,,,,,,,,,,,,,,,,,,,,,,,,,,,,,,,,,,,,,,,,,,,,,,,,,,,,,,,,,,,,,,,,
,,,,,,,,,Haley Kaylor,1102,2020-11-10_11h57.24.249,experiment,2020.1.3,Linux x86_64,60,,,,,,,,,,,,,,,,,,,,,0,9,9,9,1,aoiConditions/train1P1Block10.xlsx,aoiConditions/train1P1Block10Test.xlsx,,,,,,,,,,,,,,,,,,,,,,,,,,,,,,,,,,,,,,,,,,,,,,,,,,,,,,,,,
,,0,0,0,0,1,trainingaudio/27_pakapa1.ogg,pngimages/27_kiwi.png,Haley Kaylor,1102,2020-11-10_11h57.24.249,experiment,2020.1.3,Linux x86_64,60,,,,,,,,,,,,,,,,,,,,,,,,,,,,,,,,,,,,,,,,,,,,,,,,,,,,,,,,,,,,,,,,,,,,,,,,,,,,,,,,,,,,
,,,,,,,,,Haley Kaylor,1102,2020-11-10_11h57.24.249,experiment,2020.1.3,Linux x86_64,60,,,0,0,0,0,1,,,,,,,,,,,,,,,,,,,,,,,,,,,,,,,,,,,,,,,,,,,,,,,,,,,,,,,,,,,,,,,,,,,,,,,,,,,,,
,,,,,,,,,Haley Kaylor,1102,2020-11-10_11h57.24.249,experiment,2020.1.3,Linux x86_64,60,,,,,,,,j,0.460415,0,0,0,0,1,trainingaudio/27_pakapa1.ogg,pngimages/27_kiwi.png,train1P1,pngimages/15_barrel.png,0.5,-0.5,,,,,,,,,,,,,,,,,,,,,,,,,,,,,,,,,,,,,,,,,,,,,,,,,,,,,,,,,,,,,,,,
,,,,,,,,,Haley Kaylor,1102,2020-11-10_11h57.24.249,experiment,2020.1.3,Linux x86_64,60,,,,,,,,,,,,,,,,,,,,,0,10,10,10,1,aoiConditions/train1P1Block11.xlsx,aoiConditions/train1P1Block11Test.xlsx,,,,,,,,,,,,,,,,,,,,,,,,,,,,,,,,,,,,,,,,,,,,,,,,,,,,,,,,,
,,0,0,0,0,1,trainingaudio/05_titopo2.ogg,pngimages/05_megaphone.png,Haley Kaylor,1102,2020-11-10_11h57.24.249,experiment,2020.1.3,Linux x86_64,60,,,,,,,,,,,,,,,,,,,,,,,,,,,,,,,,,,,,,,,,,,,,,,,,,,,,,,,,,,,,,,,,,,,,,,,,,,,,,,,,,,,,
,,,,,,,,,Haley Kaylor,1102,2020-11-10_11h57.24.249,experiment,2020.1.3,Linux x86_64,60,,,0,0,0,0,1,,,,,,,,,,,,,,,,,,,,,,,,,,,,,,,,,,,,,,,,,,,,,,,,,,,,,,,,,,,,,,,,,,,,,,,,,,,,,
,,,,,,,,,Haley Kaylor,1102,2020-11-10_11h57.24.249,experiment,2020.1.3,Linux x86_64,60,,,,,,,,j,0.3756,0,0,0,0,1,trainingaudio/16_kokapi2.ogg,pngimages/16_icecream.png,train1P1,pngimages/05_megaphone.png,0.5,-0.5,,,,,,,,,,,,,,,,,,,,,,,,,,,,,,,,,,,,,,,,,,,,,,,,,,,,,,,,,,,,,,,,
,,,,,,,,,Haley Kaylor,1102,2020-11-10_11h57.24.249,experiment,2020.1.3,Linux x86_64,60,,,,,,,,,,,,,,,,,,,,,0,11,11,11,1,aoiConditions/train1P1Block12.xlsx,aoiConditions/train1P1Block12Test.xlsx,,,,,,,,,,,,,,,,,,,,,,,,,,,,,,,,,,,,,,,,,,,,,,,,,,,,,,,,,
,,0,0,0,0,1,trainingaudio/11_tokiko1.ogg,pngimages/11_compass.png,Haley Kaylor,1102,2020-11-10_11h57.24.249,experiment,2020.1.3,Linux x86_64,60,,,,,,,,,,,,,,,,,,,,,,,,,,,,,,,,,,,,,,,,,,,,,,,,,,,,,,,,,,,,,,,,,,,,,,,,,,,,,,,,,,,,
,,,,,,,,,Haley Kaylor,1102,2020-11-10_11h57.24.249,experiment,2020.1.3,Linux x86_64,60,,,0,0,0,0,1,,,,,,,,,,,,,,,,,,,,,,,,,,,,,,,,,,,,,,,,,,,,,,,,,,,,,,,,,,,,,,,,,,,,,,,,,,,,,
,,,,,,,,,Haley Kaylor,1102,2020-11-10_11h57.24.249,experiment,2020.1.3,Linux x86_64,60,,,,,,,,j,0.26939,0,0,0,0,1,trainingaudio/20_tatito1.ogg,pngimages/20_pizza.png,train1P1,pngimages/11_compass.png,0.5,-0.5,,,,,,,,,,,,,,,,,,,,,,,,,,,,,,,,,,,,,,,,,,,,,,,,,,,,,,,,,,,,,,,,
,,,,,,,,,Haley Kaylor,1102,2020-11-10_11h57.24.249,experiment,2020.1.3,Linux x86_64,60,,,,,,,,,,,,,,,,,,,,,0,12,12,12,1,aoiConditions/train1P1Block13.xlsx,aoiConditions/train1P1Block13Test.xlsx,,,,,,,,,,,,,,,,,,,,,,,,,,,,,,,,,,,,,,,,,,,,,,,,,,,,,,,,,
,,0,0,0,0,1,trainingaudio/14_pokoto1.ogg,pngimages/14_coffee.png,Haley Kaylor,1102,2020-11-10_11h57.24.249,experiment,2020.1.3,Linux x86_64,60,,,,,,,,,,,,,,,,,,,,,,,,,,,,,,,,,,,,,,,,,,,,,,,,,,,,,,,,,,,,,,,,,,,,,,,,,,,,,,,,,,,,
,,,,,,,,,Haley Kaylor,1102,2020-11-10_11h57.24.249,experiment,2020.1.3,Linux x86_64,60,,,0,0,0,0,1,,,,,,,,,,,,,,,,,,,,,,,,,,,,,,,,,,,,,,,,,,,,,,,,,,,,,,,,,,,,,,,,,,,,,,,,,,,,,
,,,,,,,,,Haley Kaylor,1102,2020-11-10_11h57.24.249,experiment,2020.1.3,Linux x86_64,60,,,,,,,,j,0.12079,0,0,0,0,1,trainingaudio/14_pokoto1.ogg,pngimages/14_coffee.png,train1P1,pngimages/94_house.png,0.5,-0.5,,,,,,,,,,,,,,,,,,,,,,,,,,,,,,,,,,,,,,,,,,,,,,,,,,,,,,,,,,,,,,,,
,,,,,,,,,Haley Kaylor,1102,2020-11-10_11h57.24.249,experiment,2020.1.3,Linux x86_64,60,,,,,,,,,,,,,,,,,,,,,,,,,,,,0,0,0,0,1,aoiConditions/train1P1LoopCondition.xlsx,two,,,,,,,,,,,,,,,,,,,,,,,,,,,,,,,,,,,,,,,,,,,,,,,,,,
space,5.8081,0,0,0,0,1,trainingaudio/09_tipata2.ogg,pngimages/09_plane.png,Haley Kaylor,1102,2020-11-10_11h57.24.249,experiment,2020.1.3,Linux x86_64,60,,,,,,,,,,,,,,,,,,,,,,,,,,,,,,,,,,,,,,,,,,,,,,,,,,,,,,,,,,,,,,,,,,,,,,,,,,,,,,,,,,,,
,,0,1,1,1,1,trainingaudio/15_kopota3.ogg,pngimages/15_barrel.png,Haley Kaylor,1102,2020-11-10_11h57.24.249,experiment,2020.1.3,Linux x86_64,60,,,,,,,,,,,,,,,,,,,,,,,,,,,,,,,,,,,,,,,,,,,,,,,,,,,,,,,,,,,,,,,,,,,,,,,,,,,,,,,,,,,,
,,0,2,2,2,1,trainingaudio/14_pokoto1.ogg,pngimages/14_coffee.png,Haley Kaylor,1102,2020-11-10_11h57.24.249,experiment,2020.1.3,Linux x86_64,60,,,,,,,,,,,,,,,,,,,,,,,,,,,,,,,,,,,,,,,,,,,,,,,,,,,,,,,,,,,,,,,,,,,,,,,,,,,,,,,,,,,,
,,,,,,,,,Haley Kaylor,1102,2020-11-10_11h57.24.249,experiment,2020.1.3,Linux x86_64,60,space,1.963395,0,0,0,0,1,,,,,,,,,,,,,,,,,,,,,,,,,,,,,,,,,,,,,,,,,,,,,,,,,,,,,,,,,,,,,,,,,,,,,,,,,,,,,
,,,,,,,,,Haley Kaylor,1102,2020-11-10_11h57.24.249,experiment,2020.1.3,Linux x86_64,60,,,,,,,,j,0.284795,0,0,0,0,1,trainingaudio/09_tipata2.ogg,pngimages/09_plane.png,train1P2,pngimages/19_burger.png,0.5,-0.5,,,,,,,,,,,,,,,,,,,,,,,,,,,,,,,,,,,,,,,,,,,,,,,,,,,,,,,,,,,,,,,,
,,,,,,,,,Haley Kaylor,1102,2020-11-10_11h57.24.249,experiment,2020.1.3,Linux x86_64,60,,,,,,,,f,2.58549,0,1,1,1,1,trainingaudio/15_kopota3.ogg,pngimages/15_barrel.png,train1P2,pngimages/14_coffee.png,-0.5,0.5,,,,,,,,,,,,,,,,,,,,,,,,,,,,,,,,,,,,,,,,,,,,,,,,,,,,,,,,,,,,,,,,
,,,,,,,,,Haley Kaylor,1102,2020-11-10_11h57.24.249,experiment,2020.1.3,Linux x86_64,60,,,,,,,,,,,,,,,,,,,,,0,0,0,0,1,aoiConditions/train1P2Block1.xlsx,aoiConditions/train1P2Block1Test.xlsx,,,,,,,,,,,,,,,,,,,,,,,,,,,,,,,,,,,,,,,,,,,,,,,,,,,,,,,,,
,,0,0,0,0,1,trainingaudio/16_kokapi2.ogg,pngimages/16_icecream.png,Haley Kaylor,1102,2020-11-10_11h57.24.249,experiment,2020.1.3,Linux x86_64,60,,,,,,,,,,,,,,,,,,,,,,,,,,,,,,,,,,,,,,,,,,,,,,,,,,,,,,,,,,,,,,,,,,,,,,,,,,,,,,,,,,,,
,,0,1,1,1,1,trainingaudio/26_kapako1.ogg,pngimages/26_pineapple.png,Haley Kaylor,1102,2020-11-10_11h57.24.249,experiment,2020.1.3,Linux x86_64,60,,,,,,,,,,,,,,,,,,,,,,,,,,,,,,,,,,,,,,,,,,,,,,,,,,,,,,,,,,,,,,,,,,,,,,,,,,,,,,,,,,,,
,,0,2,2,2,1,trainingaudio/17_kotako2.ogg,pngimages/17_cracker.png,Haley Kaylor,1102,2020-11-10_11h57.24.249,experiment,2020.1.3,Linux x86_64,60,,,,,,,,,,,,,,,,,,,,,,,,,,,,,,,,,,,,,,,,,,,,,,,,,,,,,,,,,,,,,,,,,,,,,,,,,,,,,,,,,,,,
,,,,,,,,,Haley Kaylor,1102,2020-11-10_11h57.24.249,experiment,2020.1.3,Linux x86_64,60,,,0,0,0,0,1,,,,,,,,,,,,,,,,,,,,,,,,,,,,,,,,,,,,,,,,,,,,,,,,,,,,,,,,,,,,,,,,,,,,,,,,,,,,,
,,,,,,,,,Haley Kaylor,1102,2020-11-10_11h57.24.249,experiment,2020.1.3,Linux x86_64,60,,,,,,,,f,0.28625,0,0,0,0,1,trainingaudio/11_tokiko1.ogg,pngimages/11_compass.png,train1P2,pngimages/26_pineapple.png,-0.5,0.5,,,,,,,,,,,,,,,,,,,,,,,,,,,,,,,,,,,,,,,,,,,,,,,,,,,,,,,,,,,,,,,,
,,,,,,,,,Haley Kaylor,1102,2020-11-10_11h57.24.249,experiment,2020.1.3,Linux x86_64,60,,,,,,,,f,0.539395,0,1,1,1,1,trainingaudio/17_kotako2.ogg,pngimages/17_cracker.png,train1P2,pngimages/16_icecream.png,-0.5,0.5,,,,,,,,,,,,,,,,,,,,,,,,,,,,,,,,,,,,,,,,,,,,,,,,,,,,,,,,,,,,,,,,
,,,,,,,,,Haley Kaylor,1102,2020-11-10_11h57.24.249,experiment,2020.1.3,Linux x86_64,60,,,,,,,,,,,,,,,,,,,,,0,1,1,1,1,aoiConditions/train1P2Block2.xlsx,aoiConditions/train1P2Block2Test.xlsx,,,,,,,,,,,,,,,,,,,,,,,,,,,,,,,,,,,,,,,,,,,,,,,,,,,,,,,,,
,,0,0,0,0,1,trainingaudio/08_tipako2.ogg,pngimages/08_bell.png,Haley Kaylor,1102,2020-11-10_11h57.24.249,experiment,2020.1.3,Linux x86_64,60,,,,,,,,,,,,,,,,,,,,,,,,,,,,,,,,,,,,,,,,,,,,,,,,,,,,,,,,,,,,,,,,,,,,,,,,,,,,,,,,,,,,
,,0,1,1,1,1,trainingaudio/07_pitapi2.ogg,pngimages/07_suitcase.png,Haley Kaylor,1102,2020-11-10_11h57.24.249,experiment,2020.1.3,Linux x86_64,60,,,,,,,,,,,,,,,,,,,,,,,,,,,,,,,,,,,,,,,,,,,,,,,,,,,,,,,,,,,,,,,,,,,,,,,,,,,,,,,,,,,,
,,0,2,2,2,1,trainingaudio/03_kikita3.ogg,pngimages/03_box.png,Haley Kaylor,1102,2020-11-10_11h57.24.249,experiment,2020.1.3,Linux x86_64,60,,,,,,,,,,,,,,,,,,,,,,,,,,,,,,,,,,,,,,,,,,,,,,,,,,,,,,,,,,,,,,,,,,,,,,,,,,,,,,,,,,,,
,,,,,,,,,Haley Kaylor,1102,2020-11-10_11h57.24.249,experiment,2020.1.3,Linux x86_64,60,,,0,0,0,0,1,,,,,,,,,,,,,,,,,,,,,,,,,,,,,,,,,,,,,,,,,,,,,,,,,,,,,,,,,,,,,,,,,,,,,,,,,,,,,
,,,,,,,,,Haley Kaylor,1102,2020-11-10_11h57.24.249,experiment,2020.1.3,Linux x86_64,60,,,,,,,,j,1.64347,0,0,0,0,1,trainingaudio/07_pitapi2.ogg,pngimages/07_suitcase.png,train1P2,pngimages/08_bell.png,0.5,-0.5,,,,,,,,,,,,,,,,,,,,,,,,,,,,,,,,,,,,,,,,,,,,,,,,,,,,,,,,,,,,,,,,
,,,,,,,,,Haley Kaylor,1102,2020-11-10_11h57.24.249,experiment,2020.1.3,Linux x86_64,60,,,,,,,,f,0.821615,0,1,1,1,1,trainingaudio/03_kikita3.ogg,pngimages/03_box.png,train1P2,pngimages/01_gift.png,-0.5,0.5,,,,,,,,,,,,,,,,,,,,,,,,,,,,,,,,,,,,,,,,,,,,,,,,,,,,,,,,,,,,,,,,
,,,,,,,,,Haley Kaylor,1102,2020-11-10_11h57.24.249,experiment,2020.1.3,Linux x86_64,60,,,,,,,,,,,,,,,,,,,,,0,2,2,2,1,aoiConditions/train1P2Block3.xlsx,aoiConditions/train1P2Block3Test.xlsx,,,,,,,,,,,,,,,,,,,,,,,,,,,,,,,,,,,,,,,,,,,,,,,,,,,,,,,,,
,,0,0,0,0,1,trainingaudio/12_pokika3.ogg,pngimages/12_pie.png,Haley Kaylor,1102,2020-11-10_11h57.24.249,experiment,2020.1.3,Linux x86_64,60,,,,,,,,,,,,,,,,,,,,,,,,,,,,,,,,,,,,,,,,,,,,,,,,,,,,,,,,,,,,,,,,,,,,,,,,,,,,,,,,,,,,
,,0,1,1,1,1,trainingaudio/22_kakoki1.ogg,pngimages/22_egg.png,Haley Kaylor,1102,2020-11-10_11h57.24.249,experiment,2020.1.3,Linux x86_64,60,,,,,,,,,,,,,,,,,,,,,,,,,,,,,,,,,,,,,,,,,,,,,,,,,,,,,,,,,,,,,,,,,,,,,,,,,,,,,,,,,,,,
,,0,2,2,2,1,trainingaudio/04_kitoti2.ogg,pngimages/04_ladder.png,Haley Kaylor,1102,2020-11-10_11h57.24.249,experiment,2020.1.3,Linux x86_64,60,,,,,,,,,,,,,,,,,,,,,,,,,,,,,,,,,,,,,,,,,,,,,,,,,,,,,,,,,,,,,,,,,,,,,,,,,,,,,,,,,,,,
,,,,,,,,,Haley Kaylor,1102,2020-11-10_11h57.24.249,experiment,2020.1.3,Linux x86_64,60,,,0,0,0,0,1,,,,,,,,,,,,,,,,,,,,,,,,,,,,,,,,,,,,,,,,,,,,,,,,,,,,,,,,,,,,,,,,,,,,,,,,,,,,,
,,,,,,,,,Haley Kaylor,1102,2020-11-10_11h57.24.249,experiment,2020.1.3,Linux x86_64,60,,,,,,,,j,0.425065,0,0,0,0,1,trainingaudio/04_kitoti2.ogg,pngimages/04_ladder.png,train1P2,pngimages/12_pie.png,0.5,-0.5,,,,,,,,,,,,,,,,,,,,,,,,,,,,,,,,,,,,,,,,,,,,,,,,,,,,,,,,,,,,,,,,
,,,,,,,,,Haley Kaylor,1102,2020-11-10_11h57.24.249,experiment,2020.1.3,Linux x86_64,60,,,,,,,,f,0.024665,0,1,1,1,1,trainingaudio/22_kakoki1.ogg,pngimages/22_egg.png,train1P2,pngimages/02_pallet.png,-0.5,0.5,,,,,,,,,,,,,,,,,,,,,,,,,,,,,,,,,,,,,,,,,,,,,,,,,,,,,,,,,,,,,,,,
,,,,,,,,,Haley Kaylor,1102,2020-11-10_11h57.24.249,experiment,2020.1.3,Linux x86_64,60,,,,,,,,,,,,,,,,,,,,,0,3,3,3,1,aoiConditions/train1P2Block4.xlsx,aoiConditions/train1P2Block4Test.xlsx,,,,,,,,,,,,,,,,,,,,,,,,,,,,,,,,,,,,,,,,,,,,,,,,,,,,,,,,,
,,0,0,0,0,1,trainingaudio/23_patoko1.ogg,pngimages/23_lemon.png,Haley Kaylor,1102,2020-11-10_11h57.24.249,experiment,2020.1.3,Linux x86_64,60,,,,,,,,,,,,,,,,,,,,,,,,,,,,,,,,,,,,,,,,,,,,,,,,,,,,,,,,,,,,,,,,,,,,,,,,,,,,,,,,,,,,
,,0,1,1,1,1,trainingaudio/10_tokiti1.ogg,pngimages/10_backpack.png,Haley Kaylor,1102,2020-11-10_11h57.24.249,experiment,2020.1.3,Linux x86_64,60,,,,,,,,,,,,,,,,,,,,,,,,,,,,,,,,,,,,,,,,,,,,,,,,,,,,,,,,,,,,,,,,,,,,,,,,,,,,,,,,,,,,
,,0,2,2,2,1,trainingaudio/20_tatito1.ogg,pngimages/20_pizza.png,Haley Kaylor,1102,2020-11-10_11h57.24.249,experiment,2020.1.3,Linux x86_64,60,,,,,,,,,,,,,,,,,,,,,,,,,,,,,,,,,,,,,,,,,,,,,,,,,,,,,,,,,,,,,,,,,,,,,,,,,,,,,,,,,,,,
,,,,,,,,,Haley Kaylor,1102,2020-11-10_11h57.24.249,experiment,2020.1.3,Linux x86_64,60,,,0,0,0,0,1,,,,,,,,,,,,,,,,,,,,,,,,,,,,,,,,,,,,,,,,,,,,,,,,,,,,,,,,,,,,,,,,,,,,,,,,,,,,,
,,,,,,,,,Haley Kaylor,1102,2020-11-10_11h57.24.249,experiment,2020.1.3,Linux x86_64,60,,,,,,,,f,1.559695,0,0,0,0,1,trainingaudio/10_tokiti1.ogg,pngimages/10_backpack.png,train1P2,pngimages/23_lemon.png,0.5,-0.5,,,,,,,,,,,,,,,,,,,,,,,,,,,,,,,,,,,,,,,,,,,,,,,,,,,,,,,,,,,,,,,,
,,,,,,,,,Haley Kaylor,1102,2020-11-10_11h57.24.249,experiment,2020.1.3,Linux x86_64,60,,,,,,,,f,2.06961,0,1,1,1,1,trainingaudio/25_tapapi1.ogg,pngimages/25_apple.png,train1P2,pngimages/20_pizza.png,-0.5,0.5,,,,,,,,,,,,,,,,,,,,,,,,,,,,,,,,,,,,,,,,,,,,,,,,,,,,,,,,,,,,,,,,
,,,,,,,,,Haley Kaylor,1102,2020-11-10_11h57.24.249,experiment,2020.1.3,Linux x86_64,60,,,,,,,,,,,,,,,,,,,,,0,4,4,4,1,aoiConditions/train1P2Block5.xlsx,aoiConditions/train1P2Block5Test.xlsx,,,,,,,,,,,,,,,,,,,,,,,,,,,,,,,,,,,,,,,,,,,,,,,,,,,,,,,,,
,,0,0,0,0,1,trainingaudio/18_popata2.ogg,pngimages/18_donut.png,Haley Kaylor,1102,2020-11-10_11h57.24.249,experiment,2020.1.3,Linux x86_64,60,,,,,,,,,,,,,,,,,,,,,,,,,,,,,,,,,,,,,,,,,,,,,,,,,,,,,,,,,,,,,,,,,,,,,,,,,,,,,,,,,,,,
,,0,1,1,1,1,trainingaudio/06_titoka3.ogg,pngimages/06_tent.png,Haley Kaylor,1102,2020-11-10_11h57.24.249,experiment,2020.1.3,Linux x86_64,60,,,,,,,,,,,,,,,,,,,,,,,,,,,,,,,,,,,,,,,,,,,,,,,,,,,,,,,,,,,,,,,,,,,,,,,,,,,,,,,,,,,,
,,0,2,2,2,1,trainingaudio/21_papika1.ogg,pngimages/21_cheese.png,Haley Kaylor,1102,2020-11-10_11h57.24.249,experiment,2020.1.3,Linux x86_64,60,,,,,,,,,,,,,,,,,,,,,,,,,,,,,,,,,,,,,,,,,,,,,,,,,,,,,,,,,,,,,,,,,,,,,,,,,,,,,,,,,,,,
,,,,,,,,,Haley Kaylor,1102,2020-11-10_11h57.24.249,experiment,2020.1.3,Linux x86_64,60,,,0,0,0,0,1,,,,,,,,,,,,,,,,,,,,,,,,,,,,,,,,,,,,,,,,,,,,,,,,,,,,,,,,,,,,,,,,,,,,,,,,,,,,,
,,,,,,,,,Haley Kaylor,1102,2020-11-10_11h57.24.249,experiment,2020.1.3,Linux x86_64,60,,,,,,,,f,0.985475,0,0,0,0,1,trainingaudio/21_papika1.ogg,pngimages/21_cheese.png,train1P2,pngimages/18_donut.png,-0.5,0.5,,,,,,,,,,,,,,,,,,,,,,,,,,,,,,,,,,,,,,,,,,,,,,,,,,,,,,,,,,,,,,,,
,,,,,,,,,Haley Kaylor,1102,2020-11-10_11h57.24.249,experiment,2020.1.3,Linux x86_64,60,,,,,,,,f,0.35277,0,1,1,1,1,trainingaudio/06_titoka3.ogg,pngimages/06_tent.png,train1P2,pngimages/27_kiwi.png,-0.5,0.5,,,,,,,,,,,,,,,,,,,,,,,,,,,,,,,,,,,,,,,,,,,,,,,,,,,,,,,,,,,,,,,,
,,,,,,,,,Haley Kaylor,1102,2020-11-10_11h57.24.249,experiment,2020.1.3,Linux x86_64,60,,,,,,,,,,,,,,,,,,,,,0,5,5,5,1,aoiConditions/train1P2Block6.xlsx,aoiConditions/train1P2Block6Test.xlsx,,,,,,,,,,,,,,,,,,,,,,,,,,,,,,,,,,,,,,,,,,,,,,,,,,,,,,,,,
,,0,0,0,0,1,trainingaudio/24_takopa1.ogg,pngimages/24_banana.png,Haley Kaylor,1102,2020-11-10_11h57.24.249,experiment,2020.1.3,Linux x86_64,60,,,,,,,,,,,,,,,,,,,,,,,,,,,,,,,,,,,,,,,,,,,,,,,,,,,,,,,,,,,,,,,,,,,,,,,,,,,,,,,,,,,,
,,0,1,1,1,1,trainingaudio/13_kopopi1.ogg,pngimages/13_toast.png,Haley Kaylor,1102,2020-11-10_11h57.24.249,experiment,2020.1.3,Linux x86_64,60,,,,,,,,,,,,,,,,,,,,,,,,,,,,,,,,,,,,,,,,,,,,,,,,,,,,,,,,,,,,,,,,,,,,,,,,,,,,,,,,,,,,
,,0,2,2,2,1,trainingaudio/05_titopo2.ogg,pngimages/05_megaphone.png,Haley Kaylor,1102,2020-11-10_11h57.24.249,experiment,2020.1.3,Linux x86_64,60,,,,,,,,,,,,,,,,,,,,,,,,,,,,,,,,,,,,,,,,,,,,,,,,,,,,,,,,,,,,,,,,,,,,,,,,,,,,,,,,,,,,
,,,,,,,,,Haley Kaylor,1102,2020-11-10_11h57.24.249,experiment,2020.1.3,Linux x86_64,60,,,0,0,0,0,1,,,,,,,,,,,,,,,,,,,,,,,,,,,,,,,,,,,,,,,,,,,,,,,,,,,,,,,,,,,,,,,,,,,,,,,,,,,,,
,,,,,,,,,Haley Kaylor,1102,2020-11-10_11h57.24.249,experiment,2020.1.3,Linux x86_64,60,,,,,,,,j,0.39115,0,0,0,0,1,trainingaudio/94_kipipi1.ogg,pngimages/94_house.png,train1P2,pngimages/24_banana.png,0.5,-0.5,,,,,,,,,,,,,,,,,,,,,,,,,,,,,,,,,,,,,,,,,,,,,,,,,,,,,,,,,,,,,,,,
,,,,,,,,,Haley Kaylor,1102,2020-11-10_11h57.24.249,experiment,2020.1.3,Linux x86_64,60,,,,,,,,f,1.151275,0,1,1,1,1,trainingaudio/05_titopo2.ogg,pngimages/05_megaphone.png,train1P2,pngimages/13_toast.png,-0.5,0.5,,,,,,,,,,,,,,,,,,,,,,,,,,,,,,,,,,,,,,,,,,,,,,,,,,,,,,,,,,,,,,,,
,,,,,,,,pngimages/04_ladder.png,Haley Kaylor,1102,2020-11-10_11h57.24.249,experiment,2020.1.3,Linux x86_64,60,,,,,,,,,,,,,,,,,test1,,,,,,,,,,,,,,,,,,space,2.556515,space,10.411745,j,0.70466,0,0,0,0,1,trainingaudio/04_kitoti1.ogg,trainingaudio/04_kitoti2.ogg,2,trainingaudio/04_kitoti2.ogg,,,,,,,,,,,,,,,,,,,,,,,,,,,,,,,,,,,
,,,,,,,,pngimages/12_pie.png,Haley Kaylor,1102,2020-11-10_11h57.24.249,experiment,2020.1.3,Linux x86_64,60,,,,,,,,,,,,,,,,,test1,,,,,,,,,,,,,,,,,,,,,,f,0.777475,0,1,1,1,1,trainingaudio/12_pokika1.ogg,trainingaudio/12_pokika3.ogg,2,trainingaudio/12_pokika3.ogg,,,,,,,,,,,,,,,,,,,,,,,,,,,,,,,,,,,
,,,,,,,,pngimages/02_pallet.png,Haley Kaylor,1102,2020-11-10_11h57.24.249,experiment,2020.1.3,Linux x86_64,60,,,,,,,,,,,,,,,,,test1,,,,,,,,,,,,,,,,,,,,,,f,0.596895,0,2,2,2,1,trainingaudio/02_pitito3.ogg,trainingaudio/02_pitito1.ogg,1,trainingaudio/02_pitito3.ogg,,,,,,,,,,,,,,,,,,,,,,,,,,,,,,,,,,,
,,,,,,,,pngimages/20_pizza.png,Haley Kaylor,1102,2020-11-10_11h57.24.249,experiment,2020.1.3,Linux x86_64,60,,,,,,,,,,,,,,,,,test1,,,,,,,,,,,,,,,,,,,,,,j,0.54553,0,3,3,3,1,trainingaudio/20_tatito2.ogg,trainingaudio/20_tatito1.ogg,2,trainingaudio/20_tatito1.ogg,,,,,,,,,,,,,,,,,,,,,,,,,,,,,,,,,,,
,,,,,,,,pngimages/24_banana.png,Haley Kaylor,1102,2020-11-10_11h57.24.249,experiment,2020.1.3,Linux x86_64,60,,,,,,,,,,,,,,,,,test1,,,,,,,,,,,,,,,,,,,,,,j,0.744495,0,4,4,4,1,trainingaudio/24_takopa2.ogg,trainingaudio/24_takopa1.ogg,2,trainingaudio/24_takopa1.ogg,,,,,,,,,,,,,,,,,,,,,,,,,,,,,,,,,,,
,,,,,,,,pngimages/09_plane.png,Haley Kaylor,1102,2020-11-10_11h57.24.249,experiment,2020.1.3,Linux x86_64,60,,,,,,,,,,,,,,,,,test1,,,,,,,,,,,,,,,,,,,,,,j,1.44275,0,5,5,5,1,trainingaudio/09_tipata1.ogg,trainingaudio/09_tipata2.ogg,2,trainingaudio/09_tipata2.ogg,,,,,,,,,,,,,,,,,,,,,,,,,,,,,,,,,,,
,,,,,,,,pngimages/14_coffee.png,Haley Kaylor,1102,2020-11-10_11h57.24.249,experiment,2020.1.3,Linux x86_64,60,,,,,,,,,,,,,,,,,test1,,,,,,,,,,,,,,,,,,,,,,f,0.50948,0,6,6,6,1,trainingaudio/14_pokoto3.ogg,trainingaudio/14_pokoto1.ogg,2,trainingaudio/14_pokoto1.ogg,,,,,,,,,,,,,,,,,,,,,,,,,,,,,,,,,,,
,,,,,,,,pngimages/15_barrel.png,Haley Kaylor,1102,2020-11-10_11h57.24.249,experiment,2020.1.3,Linux x86_64,60,,,,,,,,,,,,,,,,,test1,,,,,,,,,,,,,,,,,,,,,,f,1.59633,0,7,7,7,1,trainingaudio/15_kopota3.ogg,trainingaudio/15_kopota2.ogg,1,trainingaudio/15_kopota3.ogg,,,,,,,,,,,,,,,,,,,,,,,,,,,,,,,,,,,
,,,,,,,,pngimages/27_kiwi.png,Haley Kaylor,1102,2020-11-10_11h57.24.249,experiment,2020.1.3,Linux x86_64,60,,,,,,,,,,,,,,,,,test1,,,,,,,,,,,,,,,,,,,,,,f,0.593405,0,8,8,8,1,trainingaudio/27_pakapa3.ogg,trainingaudio/27_pakapa1.ogg,2,trainingaudio/27_pakapa1.ogg,,,,,,,,,,,,,,,,,,,,,,,,,,,,,,,,,,,
,,,,,,,,pngimages/22_egg.png,Haley Kaylor,1102,2020-11-10_11h57.24.249,experiment,2020.1.3,Linux x86_64,60,,,,,,,,,,,,,,,,,test1,,,,,,,,,,,,,,,,,,,,,,f,0.383795,0,9,9,9,1,trainingaudio/22_kakoki1.ogg,trainingaudio/22_kakoki3.ogg,1,trainingaudio/22_kakoki1.ogg,,,,,,,,,,,,,,,,,,,,,,,,,,,,,,,,,,,
,,,,,,,,pngimages/18_donut.png,Haley Kaylor,1102,2020-11-10_11h57.24.249,experiment,2020.1.3,Linux x86_64,60,,,,,,,,,,,,,,,,,test1,,,,,,,,,,,,,,,,,,,,,,f,1.514585,0,10,10,10,1,trainingaudio/18_popata2.ogg,trainingaudio/18_popata3.ogg,1,trainingaudio/18_popata2.ogg,,,,,,,,,,,,,,,,,,,,,,,,,,,,,,,,,,,
,,,,,,,,pngimages/13_toast.png,Haley Kaylor,1102,2020-11-10_11h57.24.249,experiment,2020.1.3,Linux x86_64,60,,,,,,,,,,,,,,,,,test1,,,,,,,,,,,,,,,,,,,,,,f,0.53151,0,11,11,11,1,trainingaudio/13_kopopi1.ogg,trainingaudio/13_kopopi2.ogg,1,trainingaudio/13_kopopi1.ogg,,,,,,,,,,,,,,,,,,,,,,,,,,,,,,,,,,,
,,,,,,,,pngimages/06_tent.png,Haley Kaylor,1102,2020-11-10_11h57.24.249,experiment,2020.1.3,Linux x86_64,60,,,,,,,,,,,,,,,,,test1,,,,,,,,,,,,,,,,,,,,,,j,1.105005,0,12,12,12,1,trainingaudio/06_titoka3.ogg,trainingaudio/06_titoka1.ogg,1,trainingaudio/06_titoka3.ogg,,,,,,,,,,,,,,,,,,,,,,,,,,,,,,,,,,,
,,,,,,,,pngimages/11_compass.png,Haley Kaylor,1102,2020-11-10_11h57.24.249,experiment,2020.1.3,Linux x86_64,60,,,,,,,,,,,,,,,,,test1,,,,,,,,,,,,,,,,,,,,,,f,0.559925,0,13,13,13,1,trainingaudio/11_tokiko3.ogg,trainingaudio/11_tokiko1.ogg,2,trainingaudio/11_tokiko1.ogg,,,,,,,,,,,,,,,,,,,,,,,,,,,,,,,,,,,
,,,,,,,,pngimages/05_megaphone.png,Haley Kaylor,1102,2020-11-10_11h57.24.249,experiment,2020.1.3,Linux x86_64,60,,,,,,,,,,,,,,,,,test1,,,,,,,,,,,,,,,,,,,,,,f,0.409045,0,14,14,14,1,trainingaudio/05_titopo2.ogg,trainingaudio/05_titopo3.ogg,1,trainingaudio/05_titopo2.ogg,,,,,,,,,,,,,,,,,,,,,,,,,,,,,,,,,,,
,,,,,,,,pngimages/94_house.png,Haley Kaylor,1102,2020-11-10_11h57.24.249,experiment,2020.1.3,Linux x86_64,60,,,,,,,,,,,,,,,,,test1,,,,,,,,,,,,,,,,,,,,,,f,0.289815,0,15,15,15,1,trainingaudio/94_kipipi1.ogg,trainingaudio/94_kipipi2.ogg,1,trainingaudio/94_kipipi1.ogg,,,,,,,,,,,,,,,,,,,,,,,,,,,,,,,,,,,
,,,,,,,,pngimages/07_suitcase.png,Haley Kaylor,1102,2020-11-10_11h57.24.249,experiment,2020.1.3,Linux x86_64,60,,,,,,,,,,,,,,,,,test1,,,,,,,,,,,,,,,,,,,,,,f,0.729875,0,16,16,16,1,trainingaudio/07_pitapi2.ogg,trainingaudio/07_pitapi3.ogg,1,trainingaudio/07_pitapi2.ogg,,,,,,,,,,,,,,,,,,,,,,,,,,,,,,,,,,,
,,,,,,,,pngimages/25_apple.png,Haley Kaylor,1102,2020-11-10_11h57.24.249,experiment,2020.1.3,Linux x86_64,60,,,,,,,,,,,,,,,,,test1,,,,,,,,,,,,,,,,,,,,,,j,0.380695,0,17,17,17,1,trainingaudio/25_tapapi2.ogg,trainingaudio/25_tapapi1.ogg,2,trainingaudio/25_tapapi1.ogg,,,,,,,,,,,,,,,,,,,,,,,,,,,,,,,,,,,
,,,,,,,,pngimages/03_box.png,Haley Kaylor,1102,2020-11-10_11h57.24.249,experiment,2020.1.3,Linux x86_64,60,,,,,,,,,,,,,,,,,test1,,,,,,,,,,,,,,,,,,,,,,j,0.46038,0,18,18,18,1,trainingaudio/03_kikita2.ogg,trainingaudio/03_kikita3.ogg,2,trainingaudio/03_kikita3.ogg,,,,,,,,,,,,,,,,,,,,,,,,,,,,,,,,,,,
,,,,,,,,pngimages/01_gift.png,Haley Kaylor,1102,2020-11-10_11h57.24.249,experiment,2020.1.3,Linux x86_64,60,,,,,,,,,,,,,,,,,test1,,,,,,,,,,,,,,,,,,,,,,f,1.81137,0,19,19,19,1,trainingaudio/01_kitipi2.ogg,trainingaudio/01_kitipi1.ogg,2,trainingaudio/01_kitipi1.ogg,,,,,,,,,,,,,,,,,,,,,,,,,,,,,,,,,,,
,,,,,,,,pngimages/26_pineapple.png,Haley Kaylor,1102,2020-11-10_11h57.24.249,experiment,2020.1.3,Linux x86_64,60,,,,,,,,,,,,,,,,,test1,,,,,,,,,,,,,,,,,,,,,,f,0.616095,0,20,20,20,1,trainingaudio/26_kapako2.ogg,trainingaudio/26_kapako1.ogg,2,trainingaudio/26_kapako1.ogg,,,,,,,,,,,,,,,,,,,,,,,,,,,,,,,,,,,
,,,,,,,,pngimages/10_backpack.png,Haley Kaylor,1102,2020-11-10_11h57.24.249,experiment,2020.1.3,Linux x86_64,60,,,,,,,,,,,,,,,,,test1,,,,,,,,,,,,,,,,,,,,,,j,0.560665,0,21,21,21,1,trainingaudio/10_tokiti3.ogg,trainingaudio/10_tokiti1.ogg,2,trainingaudio/10_tokiti1.ogg,,,,,,,,,,,,,,,,,,,,,,,,,,,,,,,,,,,
,,,,,,,,pngimages/21_cheese.png,Haley Kaylor,1102,2020-11-10_11h57.24.249,experiment,2020.1.3,Linux x86_64,60,,,,,,,,,,,,,,,,,test1,,,,,,,,,,,,,,,,,,,,,,f,0.42843,0,22,22,22,1,trainingaudio/21_papika1.ogg,trainingaudio/21_papika3.ogg,1,trainingaudio/21_papika1.ogg,,,,,,,,,,,,,,,,,,,,,,,,,,,,,,,,,,,
,,,,,,,,pngimages/19_burger.png,Haley Kaylor,1102,2020-11-10_11h57.24.249,experiment,2020.1.3,Linux x86_64,60,,,,,,,,,,,,,,,,,test1,,,,,,,,,,,,,,,,,,,,,,f,0.37553,0,23,23,23,1,trainingaudio/19_papipi1.ogg,trainingaudio/19_papipi3.ogg,1,trainingaudio/19_papipi1.ogg,,,,,,,,,,,,,,,,,,,,,,,,,,,,,,,,,,,
,,,,,,,,pngimages/17_cracker.png,Haley Kaylor,1102,2020-11-10_11h57.24.249,experiment,2020.1.3,Linux x86_64,60,,,,,,,,,,,,,,,,,test1,,,,,,,,,,,,,,,,,,,,,,f,1.345975,0,24,24,24,1,trainingaudio/17_kotako1.ogg,trainingaudio/17_kotako2.ogg,2,trainingaudio/17_kotako2.ogg,,,,,,,,,,,,,,,,,,,,,,,,,,,,,,,,,,,
,,,,,,,,pngimages/16_icecream.png,Haley Kaylor,1102,2020-11-10_11h57.24.249,experiment,2020.1.3,Linux x86_64,60,,,,,,,,,,,,,,,,,test1,,,,,,,,,,,,,,,,,,,,,,f,0.92996,0,25,25,25,1,trainingaudio/16_kokapi1.ogg,trainingaudio/16_kokapi2.ogg,2,trainingaudio/16_kokapi2.ogg,,,,,,,,,,,,,,,,,,,,,,,,,,,,,,,,,,,
,,,,,,,,pngimages/23_lemon.png,Haley Kaylor,1102,2020-11-10_11h57.24.249,experiment,2020.1.3,Linux x86_64,60,,,,,,,,,,,,,,,,,test1,,,,,,,,,,,,,,,,,,,,,,j,0.275935,0,26,26,26,1,trainingaudio/23_patoko2.ogg,trainingaudio/23_patoko1.ogg,2,trainingaudio/23_patoko1.ogg,,,,,,,,,,,,,,,,,,,,,,,,,,,,,,,,,,,
,,,,,,,,pngimages/08_bell.png,Haley Kaylor,1102,2020-11-10_11h57.24.249,experiment,2020.1.3,Linux x86_64,60,,,,,,,,,,,,,,,,,test1,,,,,,,,,,,,,,,,,,,,,,f,0.02796,0,27,27,27,1,trainingaudio/08_tipako2.ogg,trainingaudio/08_tipako3.ogg,1,trainingaudio/08_tipako2.ogg,,,,,,,,,,,,,,,,,,,,,,,,,,,,,,,,,,,
,,,,,,,,pngimages/27_kiwi.png,Haley Kaylor,1102,2020-11-10_11h57.24.249,experiment,2020.1.3,Linux x86_64,60,,,,,,,,,,,,,,,,,test1,,,,,,,,,,,,,,,,,,,,,,j,0.37861,0,28,28,28,1,trainingaudio/27_pakapa2.ogg,trainingaudio/27_pakapa1.ogg,2,trainingaudio/27_pakapa1.ogg,,,,,,,,,,,,,,,,,,,,,,,,,,,,,,,,,,,
,,,,,,,,pngimages/20_pizza.png,Haley Kaylor,1102,2020-11-10_11h57.24.249,experiment,2020.1.3,Linux x86_64,60,,,,,,,,,,,,,,,,,test1,,,,,,,,,,,,,,,,,,,,,,j,1.17755,0,29,29,29,1,trainingaudio/20_tatito3.ogg,trainingaudio/20_tatito1.ogg,2,trainingaudio/20_tatito1.ogg,,,,,,,,,,,,,,,,,,,,,,,,,,,,,,,,,,,
,,,,,,,,pngimages/12_pie.png,Haley Kaylor,1102,2020-11-10_11h57.24.249,experiment,2020.1.3,Linux x86_64,60,,,,,,,,,,,,,,,,,test1,,,,,,,,,,,,,,,,,,,,,,j,1.82757,0,30,30,30,1,trainingaudio/12_pokika3.ogg,trainingaudio/12_pokika1.ogg,1,trainingaudio/12_pokika3.ogg,,,,,,,,,,,,,,,,,,,,,,,,,,,,,,,,,,,
,,,,,,,,pngimages/01_gift.png,Haley Kaylor,1102,2020-11-10_11h57.24.249,experiment,2020.1.3,Linux x86_64,60,,,,,,,,,,,,,,,,,test1,,,,,,,,,,,,,,,,,,,,,,f,1.973315,0,31,31,31,1,trainingaudio/01_kitipi3.ogg,trainingaudio/01_kitipi1.ogg,2,trainingaudio/01_kitipi1.ogg,,,,,,,,,,,,,,,,,,,,,,,,,,,,,,,,,,,
,,,,,,,,pngimages/09_plane.png,Haley Kaylor,1102,2020-11-10_11h57.24.249,experiment,2020.1.3,Linux x86_64,60,,,,,,,,,,,,,,,,,test1,,,,,,,,,,,,,,,,,,,,,,j,0.42639,0,32,32,32,1,trainingaudio/09_tipata3.ogg,trainingaudio/09_tipata2.ogg,2,trainingaudio/09_tipata2.ogg,,,,,,,,,,,,,,,,,,,,,,,,,,,,,,,,,,,
,,,,,,,,pngimages/25_apple.png,Haley Kaylor,1102,2020-11-10_11h57.24.249,experiment,2020.1.3,Linux x86_64,60,,,,,,,,,,,,,,,,,test1,,,,,,,,,,,,,,,,,,,,,,j,2.67783,0,33,33,33,1,trainingaudio/25_tapapi3.ogg,trainingaudio/25_tapapi1.ogg,2,trainingaudio/25_tapapi1.ogg,,,,,,,,,,,,,,,,,,,,,,,,,,,,,,,,,,,
,,,,,,,,pngimages/02_pallet.png,Haley Kaylor,1102,2020-11-10_11h57.24.249,experiment,2020.1.3,Linux x86_64,60,,,,,,,,,,,,,,,,,test1,,,,,,,,,,,,,,,,,,,,,,f,0.395525,0,34,34,34,1,trainingaudio/02_pitito3.ogg,trainingaudio/02_pitito2.ogg,1,trainingaudio/02_pitito3.ogg,,,,,,,,,,,,,,,,,,,,,,,,,,,,,,,,,,,
,,,,,,,,pngimages/08_bell.png,Haley Kaylor,1102,2020-11-10_11h57.24.249,experiment,2020.1.3,Linux x86_64,60,,,,,,,,,,,,,,,,,test1,,,,,,,,,,,,,,,,,,,,,,f,0.531925,0,35,35,35,1,trainingaudio/08_tipako2.ogg,trainingaudio/08_tipako1.ogg,1,trainingaudio/08_tipako2.ogg,,,,,,,,,,,,,,,,,,,,,,,,,,,,,,,,,,,
,,,,,,,,pngimages/15_barrel.png,Haley Kaylor,1102,2020-11-10_11h57.24.249,experiment,2020.1.3,Linux x86_64,60,,,,,,,,,,,,,,,,,test1,,,,,,,,,,,,,,,,,,,,,,j,1.84537,0,36,36,36,1,trainingaudio/15_kopota1.ogg,trainingaudio/15_kopota3.ogg,2,trainingaudio/15_kopota3.ogg,,,,,,,,,,,,,,,,,,,,,,,,,,,,,,,,,,,
,,,,,,,,pngimages/24_banana.png,Haley Kaylor,1102,2020-11-10_11h57.24.249,experiment,2020.1.3,Linux x86_64,60,,,,,,,,,,,,,,,,,test1,,,,,,,,,,,,,,,,,,,,,,j,1.60787,0,37,37,37,1,trainingaudio/24_takopa3.ogg,trainingaudio/24_takopa1.ogg,2,trainingaudio/24_takopa1.ogg,,,,,,,,,,,,,,,,,,,,,,,,,,,,,,,,,,,
,,,,,,,,pngimages/06_tent.png,Haley Kaylor,1102,2020-11-10_11h57.24.249,experiment,2020.1.3,Linux x86_64,60,,,,,,,,,,,,,,,,,test1,,,,,,,,,,,,,,,,,,,,,,f,0.91226,0,38,38,38,1,trainingaudio/06_titoka2.ogg,trainingaudio/06_titoka3.ogg,2,trainingaudio/06_titoka3.ogg,,,,,,,,,,,,,,,,,,,,,,,,,,,,,,,,,,,
,,,,,,,,pngimages/16_icecream.png,Haley Kaylor,1102,2020-11-10_11h57.24.249,experiment,2020.1.3,Linux x86_64,60,,,,,,,,,,,,,,,,,test1,,,,,,,,,,,,,,,,,,,,,,f,1.35832,0,39,39,39,1,trainingaudio/16_kokapi2.ogg,trainingaudio/16_kokapi3.ogg,1,trainingaudio/16_kokapi2.ogg,,,,,,,,,,,,,,,,,,,,,,,,,,,,,,,,,,,
,,,,,,,,pngimages/04_ladder.png,Haley Kaylor,1102,2020-11-10_11h57.24.249,experiment,2020.1.3,Linux x86_64,60,,,,,,,,,,,,,,,,,test1,,,,,,,,,,,,,,,,,,,,,,j,0.31885,0,40,40,40,1,trainingaudio/04_kitoti1.ogg,trainingaudio/04_kitoti2.ogg,2,trainingaudio/04_kitoti2.ogg,,,,,,,,,,,,,,,,,,,,,,,,,,,,,,,,,,,
,,,,,,,,pngimages/22_egg.png,Haley Kaylor,1102,2020-11-10_11h57.24.249,experiment,2020.1.3,Linux x86_64,60,,,,,,,,,,,,,,,,,test1,,,,,,,,,,,,,,,,,,,,,,f,0.45401,0,41,41,41,1,trainingaudio/22_kakoki2.ogg,trainingaudio/22_kakoki1.ogg,2,trainingaudio/22_kakoki1.ogg,,,,,,,,,,,,,,,,,,,,,,,,,,,,,,,,,,,
,,,,,,,,pngimages/17_cracker.png,Haley Kaylor,1102,2020-11-10_11h57.24.249,experiment,2020.1.3,Linux x86_64,60,,,,,,,,,,,,,,,,,test1,,,,,,,,,,,,,,,,,,,,,,f,0.329645,0,42,42,42,1,trainingaudio/17_kotako2.ogg,trainingaudio/17_kotako3.ogg,1,trainingaudio/17_kotako2.ogg,,,,,,,,,,,,,,,,,,,,,,,,,,,,,,,,,,,
,,,,,,,,pngimages/13_toast.png,Haley Kaylor,1102,2020-11-10_11h57.24.249,experiment,2020.1.3,Linux x86_64,60,,,,,,,,,,,,,,,,,test1,,,,,,,,,,,,,,,,,,,,,,j,1.70929,0,43,43,43,1,trainingaudio/13_kopopi3.ogg,trainingaudio/13_kopopi1.ogg,2,trainingaudio/13_kopopi1.ogg,,,,,,,,,,,,,,,,,,,,,,,,,,,,,,,,,,,
,,,,,,,,pngimages/94_house.png,Haley Kaylor,1102,2020-11-10_11h57.24.249,experiment,2020.1.3,Linux x86_64,60,,,,,,,,,,,,,,,,,test1,,,,,,,,,,,,,,,,,,,,,,j,0.648205,0,44,44,44,1,trainingaudio/94_kipipi2.ogg,trainingaudio/94_kipipi1.ogg,2,trainingaudio/94_kipipi1.ogg,,,,,,,,,,,,,,,,,,,,,,,,,,,,,,,,,,,
,,,,,,,,pngimages/07_suitcase.png,Haley Kaylor,1102,2020-11-10_11h57.24.249,experiment,2020.1.3,Linux x86_64,60,,,,,,,,,,,,,,,,,test1,,,,,,,,,,,,,,,,,,,,,,f,0.41231,0,45,45,45,1,trainingaudio/07_pitapi2.ogg,trainingaudio/07_pitapi3.ogg,1,trainingaudio/07_pitapi2.ogg,,,,,,,,,,,,,,,,,,,,,,,,,,,,,,,,,,,
,,,,,,,,pngimages/10_backpack.png,Haley Kaylor,1102,2020-11-10_11h57.24.249,experiment,2020.1.3,Linux x86_64,60,,,,,,,,,,,,,,,,,test1,,,,,,,,,,,,,,,,,,,,,,j,0.31472,0,46,46,46,1,trainingaudio/10_tokiti3.ogg,trainingaudio/10_tokiti1.ogg,2,trainingaudio/10_tokiti1.ogg,,,,,,,,,,,,,,,,,,,,,,,,,,,,,,,,,,,
,,,,,,,,pngimages/19_burger.png,Haley Kaylor,1102,2020-11-10_11h57.24.249,experiment,2020.1.3,Linux x86_64,60,,,,,,,,,,,,,,,,,test1,,,,,,,,,,,,,,,,,,,,,,j,0.578255,0,47,47,47,1,trainingaudio/19_papipi3.ogg,trainingaudio/19_papipi1.ogg,2,trainingaudio/19_papipi1.ogg,,,,,,,,,,,,,,,,,,,,,,,,,,,,,,,,,,,
,,,,,,,,pngimages/18_donut.png,Haley Kaylor,1102,2020-11-10_11h57.24.249,experiment,2020.1.3,Linux x86_64,60,,,,,,,,,,,,,,,,,test1,,,,,,,,,,,,,,,,,,,,,,f,0.77656,0,48,48,48,1,trainingaudio/18_popata2.ogg,trainingaudio/18_popata3.ogg,1,trainingaudio/18_popata2.ogg,,,,,,,,,,,,,,,,,,,,,,,,,,,,,,,,,,,
,,,,,,,,pngimages/11_compass.png,Haley Kaylor,1102,2020-11-10_11h57.24.249,experiment,2020.1.3,Linux x86_64,60,,,,,,,,,,,,,,,,,test1,,,,,,,,,,,,,,,,,,,,,,j,2.957305,0,49,49,49,1,trainingaudio/11_tokiko1.ogg,trainingaudio/11_tokiko2.ogg,1,trainingaudio/11_tokiko1.ogg,,,,,,,,,,,,,,,,,,,,,,,,,,,,,,,,,,,
,,,,,,,,pngimages/21_cheese.png,Haley Kaylor,1102,2020-11-10_11h57.24.249,experiment,2020.1.3,Linux x86_64,60,,,,,,,,,,,,,,,,,test1,,,,,,,,,,,,,,,,,,,,,,j,2.89,0,50,50,50,1,trainingaudio/21_papika1.ogg,trainingaudio/21_papika3.ogg,1,trainingaudio/21_papika1.ogg,,,,,,,,,,,,,,,,,,,,,,,,,,,,,,,,,,,
,,,,,,,,pngimages/05_megaphone.png,Haley Kaylor,1102,2020-11-10_11h57.24.249,experiment,2020.1.3,Linux x86_64,60,,,,,,,,,,,,,,,,,test1,,,,,,,,,,,,,,,,,,,,,,f,0.86139,0,51,51,51,1,trainingaudio/05_titopo2.ogg,trainingaudio/05_titopo3.ogg,1,trainingaudio/05_titopo2.ogg,,,,,,,,,,,,,,,,,,,,,,,,,,,,,,,,,,,
,,,,,,,,pngimages/26_pineapple.png,Haley Kaylor,1102,2020-11-10_11h57.24.249,experiment,2020.1.3,Linux x86_64,60,,,,,,,,,,,,,,,,,test1,,,,,,,,,,,,,,,,,,,,,,j,0.9432,0,52,52,52,1,trainingaudio/26_kapako1.ogg,trainingaudio/26_kapako2.ogg,1,trainingaudio/26_kapako1.ogg,,,,,,,,,,,,,,,,,,,,,,,,,,,,,,,,,,,
,,,,,,,,pngimages/23_lemon.png,Haley Kaylor,1102,2020-11-10_11h57.24.249,experiment,2020.1.3,Linux x86_64,60,,,,,,,,,,,,,,,,,test1,,,,,,,,,,,,,,,,,,,,,,f,3.6886,0,53,53,53,1,trainingaudio/23_patoko1.ogg,trainingaudio/23_patoko3.ogg,1,trainingaudio/23_patoko1.ogg,,,,,,,,,,,,,,,,,,,,,,,,,,,,,,,,,,,
,,,,,,,,pngimages/14_coffee.png,Haley Kaylor,1102,2020-11-10_11h57.24.249,experiment,2020.1.3,Linux x86_64,60,,,,,,,,,,,,,,,,,test1,,,,,,,,,,,,,,,,,,,,,,j,0.82562,0,54,54,54,1,trainingaudio/14_pokoto2.ogg,trainingaudio/14_pokoto1.ogg,2,trainingaudio/14_pokoto1.ogg,,,,,,,,,,,,,,,,,,,,,,,,,,,,,,,,,,,
,,,,,,,,pngimages/03_box.png,Haley Kaylor,1102,2020-11-10_11h57.24.249,experiment,2020.1.3,Linux x86_64,60,,,,,,,,,,,,,,,,,test1,,,,,,,,,,,,,,,,,,,,,,f,0.943665,0,55,55,55,1,trainingaudio/03_kikita3.ogg,trainingaudio/03_kikita1.ogg,1,trainingaudio/03_kikita3.ogg,,,,,,,,,,,,,,,,,,,,,,,,,,,,,,,,,,,
,,,,,,,,pngimages/67_laptop.png,Haley Kaylor,1102,2020-11-10_11h57.24.249,experiment,2020.1.3,Linux x86_64,60,,,,,,,,,,,,,,,,,test2,,,,,,,,,,,,,,,,,,,,,,,,,,,,,novelaudio/67_tokoki1.ogg,novelaudio/67_tokoki2.ogg,1,,space,1.47847,space,10.099885,f,1.11075,0,0,0,0,1,,,,,,,,,,,,,,,,,,,,,,,,
,,,,,,,,pngimages/49_calculator.png,Haley Kaylor,1102,2020-11-10_11h57.24.249,experiment,2020.1.3,Linux x86_64,60,,,,,,,,,,,,,,,,,test2,,,,,,,,,,,,,,,,,,,,,,,,,,,,,novelaudio/49_tatopi3.ogg,novelaudio/49_tatopi1.ogg,2,,,,,,j,0.609535,0,1,1,1,1,,,,,,,,,,,,,,,,,,,,,,,,
,,,,,,,,pngimages/59_umbrella.png,Haley Kaylor,1102,2020-11-10_11h57.24.249,experiment,2020.1.3,Linux x86_64,60,,,,,,,,,,,,,,,,,test2,,,,,,,,,,,,,,,,,,,,,,,,,,,,,novelaudio/59_tipoko2.ogg,novelaudio/59_tipoko3.ogg,1,,,,,,f,0.653245,0,2,2,2,1,,,,,,,,,,,,,,,,,,,,,,,,
,,,,,,,,pngimages/45_scissors.png,Haley Kaylor,1102,2020-11-10_11h57.24.249,experiment,2020.1.3,Linux x86_64,60,,,,,,,,,,,,,,,,,test2,,,,,,,,,,,,,,,,,,,,,,,,,,,,,novelaudio/45_totaka2.ogg,novelaudio/45_totaka1.ogg,1,,,,,,f,0.451595,0,3,3,3,1,,,,,,,,,,,,,,,,,,,,,,,,
,,,,,,,,pngimages/35_skillet.png,Haley Kaylor,1102,2020-11-10_11h57.24.249,experiment,2020.1.3,Linux x86_64,60,,,,,,,,,,,,,,,,,test2,,,,,,,,,,,,,,,,,,,,,,,,,,,,,novelaudio/35_titato2.ogg,novelaudio/35_titato1.ogg,1,,,,,,j,0.587715,0,4,4,4,1,,,,,,,,,,,,,,,,,,,,,,,,
,,,,,,,,pngimages/39_fork.png,Haley Kaylor,1102,2020-11-10_11h57.24.249,experiment,2020.1.3,Linux x86_64,60,,,,,,,,,,,,,,,,,test2,,,,,,,,,,,,,,,,,,,,,,,,,,,,,novelaudio/39_kotipa1.ogg,novelaudio/39_kotipa3.ogg,2,,,,,,f,1.439765,0,5,5,5,1,,,,,,,,,,,,,,,,,,,,,,,,
,,,,,,,,pngimages/68_heart.png,Haley Kaylor,1102,2020-11-10_11h57.24.249,experiment,2020.1.3,Linux x86_64,60,,,,,,,,,,,,,,,,,test2,,,,,,,,,,,,,,,,,,,,,,,,,,,,,novelaudio/68_pokopo2.ogg,novelaudio/68_pokopo1.ogg,2,,,,,,j,5.246075,0,6,6,6,1,,,,,,,,,,,,,,,,,,,,,,,,
,,,,,,,,pngimages/74_boat.png,Haley Kaylor,1102,2020-11-10_11h57.24.249,experiment,2020.1.3,Linux x86_64,60,,,,,,,,,,,,,,,,,test2,,,,,,,,,,,,,,,,,,,,,,,,,,,,,novelaudio/74_tatiko1.ogg,novelaudio/74_tatiko2.ogg,1,,,,,,f,0.98587,0,7,7,7,1,,,,,,,,,,,,,,,,,,,,,,,,
,,,,,,,,pngimages/75_chicken.png,Haley Kaylor,1102,2020-11-10_11h57.24.249,experiment,2020.1.3,Linux x86_64,60,,,,,,,,,,,,,,,,,test2,,,,,,,,,,,,,,,,,,,,,,,,,,,,,novelaudio/75_kakita3.ogg,novelaudio/75_kakita1.ogg,2,,,,,,j,2.517795,0,8,8,8,1,,,,,,,,,,,,,,,,,,,,,,,,
,,,,,,,,pngimages/29_cherry.png,Haley Kaylor,1102,2020-11-10_11h57.24.249,experiment,2020.1.3,Linux x86_64,60,,,,,,,,,,,,,,,,,test2,,,,,,,,,,,,,,,,,,,,,,,,,,,,,novelaudio/29_pipito3.ogg,novelaudio/29_pipito2.ogg,1,,,,,,f,0.92468,0,9,9,9,1,,,,,,,,,,,,,,,,,,,,,,,,
,,,,,,,,pngimages/62_screwdriver.png,Haley Kaylor,1102,2020-11-10_11h57.24.249,experiment,2020.1.3,Linux x86_64,60,,,,,,,,,,,,,,,,,test2,,,,,,,,,,,,,,,,,,,,,,,,,,,,,novelaudio/62_pitako2.ogg,novelaudio/62_pitako1.ogg,1,,,,,,f,3.557405,0,10,10,10,1,,,,,,,,,,,,,,,,,,,,,,,,
,,,,,,,,pngimages/40_spoon.png,Haley Kaylor,1102,2020-11-10_11h57.24.249,experiment,2020.1.3,Linux x86_64,60,,,,,,,,,,,,,,,,,test2,,,,,,,,,,,,,,,,,,,,,,,,,,,,,novelaudio/40_kototi2.ogg,novelaudio/40_kototi1.ogg,2,,,,,,j,0.86869,0,11,11,11,1,,,,,,,,,,,,,,,,,,,,,,,,
,,,,,,,,pngimages/52_newspaper.png,Haley Kaylor,1102,2020-11-10_11h57.24.249,experiment,2020.1.3,Linux x86_64,60,,,,,,,,,,,,,,,,,test2,,,,,,,,,,,,,,,,,,,,,,,,,,,,,novelaudio/52_pakaki3.ogg,novelaudio/52_pakaki1.ogg,2,,,,,,j,1.387965,0,12,12,12,1,,,,,,,,,,,,,,,,,,,,,,,,
,,,,,,,,pngimages/46_paper.png,Haley Kaylor,1102,2020-11-10_11h57.24.249,experiment,2020.1.3,Linux x86_64,60,,,,,,,,,,,,,,,,,test2,,,,,,,,,,,,,,,,,,,,,,,,,,,,,novelaudio/46_tapiti1.ogg,novelaudio/46_tapiti2.ogg,1,,,,,,f,1.03992,0,13,13,13,1,,,,,,,,,,,,,,,,,,,,,,,,
,,,,,,,,pngimages/78_cow.png,Haley Kaylor,1102,2020-11-10_11h57.24.249,experiment,2020.1.3,Linux x86_64,60,,,,,,,,,,,,,,,,,test2,,,,,,,,,,,,,,,,,,,,,,,,,,,,,novelaudio/78_kakoka1.ogg,novelaudio/78_kakoka2.ogg,1,,,,,,f,1.48744,0,14,14,14,1,,,,,,,,,,,,,,,,,,,,,,,,
,,,,,,,,pngimages/37_mug.png,Haley Kaylor,1102,2020-11-10_11h57.24.249,experiment,2020.1.3,Linux x86_64,60,,,,,,,,,,,,,,,,,test2,,,,,,,,,,,,,,,,,,,,,,,,,,,,,novelaudio/37_kokiti1.ogg,novelaudio/37_kokiti3.ogg,1,,,,,,f,1.07759,0,15,15,15,1,,,,,,,,,,,,,,,,,,,,,,,,
,,,,,,,,pngimages/41_piano.png,Haley Kaylor,1102,2020-11-10_11h57.24.249,experiment,2020.1.3,Linux x86_64,60,,,,,,,,,,,,,,,,,test2,,,,,,,,,,,,,,,,,,,,,,,,,,,,,novelaudio/41_pototo1.ogg,novelaudio/41_pototo2.ogg,1,,,,,,f,0.698735,0,16,16,16,1,,,,,,,,,,,,,,,,,,,,,,,,
,,,,,,,,pngimages/50_ruler.png,Haley Kaylor,1102,2020-11-10_11h57.24.249,experiment,2020.1.3,Linux x86_64,60,,,,,,,,,,,,,,,,,test2,,,,,,,,,,,,,,,,,,,,,,,,,,,,,novelaudio/50_katoko2.ogg,novelaudio/50_katoko1.ogg,2,,,,,,j,0.55683,0,17,17,17,1,,,,,,,,,,,,,,,,,,,,,,,,
,,,,,,,,pngimages/72_nose.png,Haley Kaylor,1102,2020-11-10_11h57.24.249,experiment,2020.1.3,Linux x86_64,60,,,,,,,,,,,,,,,,,test2,,,,,,,,,,,,,,,,,,,,,,,,,,,,,novelaudio/72_topata2.ogg,novelaudio/72_topata3.ogg,1,,,,,,f,0.519545,0,18,18,18,1,,,,,,,,,,,,,,,,,,,,,,,,
,,,,,,,,pngimages/64_shovel.png,Haley Kaylor,1102,2020-11-10_11h57.24.249,experiment,2020.1.3,Linux x86_64,60,,,,,,,,,,,,,,,,,test2,,,,,,,,,,,,,,,,,,,,,,,,,,,,,novelaudio/64_popiti3.ogg,novelaudio/64_popiti1.ogg,2,,,,,,f,0.540975,0,19,19,19,1,,,,,,,,,,,,,,,,,,,,,,,,
,,,,,,,,pngimages/61_key.png,Haley Kaylor,1102,2020-11-10_11h57.24.249,experiment,2020.1.3,Linux x86_64,60,,,,,,,,,,,,,,,,,test2,,,,,,,,,,,,,,,,,,,,,,,,,,,,,novelaudio/61_pikati2.ogg,novelaudio/61_pikati1.ogg,1,,,,,,f,1.53436,0,20,20,20,1,,,,,,,,,,,,,,,,,,,,,,,,
,,,,,,,,pngimages/48_brush.png,Haley Kaylor,1102,2020-11-10_11h57.24.249,experiment,2020.1.3,Linux x86_64,60,,,,,,,,,,,,,,,,,test2,,,,,,,,,,,,,,,,,,,,,,,,,,,,,novelaudio/48_pakipa1.ogg,novelaudio/48_pakipa3.ogg,1,,,,,,j,1.271125,0,21,21,21,1,,,,,,,,,,,,,,,,,,,,,,,,
,,,,,,,,pngimages/57_flashlight.png,Haley Kaylor,1102,2020-11-10_11h57.24.249,experiment,2020.1.3,Linux x86_64,60,,,,,,,,,,,,,,,,,test2,,,,,,,,,,,,,,,,,,,,,,,,,,,,,novelaudio/57_tipipa3.ogg,novelaudio/57_tipipa1.ogg,1,,,,,,f,0.571265,0,22,22,22,1,,,,,,,,,,,,,,,,,,,,,,,,
,,,,,,,,pngimages/32_greenpepper.png,Haley Kaylor,1102,2020-11-10_11h57.24.249,experiment,2020.1.3,Linux x86_64,60,,,,,,,,,,,,,,,,,test2,,,,,,,,,,,,,,,,,,,,,,,,,,,,,novelaudio/32_kipoto1.ogg,novelaudio/32_kipoto2.ogg,2,,,,,,f,0.41954,0,23,23,23,1,,,,,,,,,,,,,,,,,,,,,,,,
,,,,,,,,pngimages/54_toiletpaper.png,Haley Kaylor,1102,2020-11-10_11h57.24.249,experiment,2020.1.3,Linux x86_64,60,,,,,,,,,,,,,,,,,test2,,,,,,,,,,,,,,,,,,,,,,,,,,,,,novelaudio/54_kapapa1.ogg,novelaudio/54_kapapa2.ogg,1,,,,,,f,0.469495,0,24,24,24,1,,,,,,,,,,,,,,,,,,,,,,,,
,,,,,,,,pngimages/79_pig.png,Haley Kaylor,1102,2020-11-10_11h57.24.249,experiment,2020.1.3,Linux x86_64,60,,,,,,,,,,,,,,,,,test2,,,,,,,,,,,,,,,,,,,,,,,,,,,,,novelaudio/79_katapi1.ogg,novelaudio/79_katapi2.ogg,1,,,,,,f,1.4853,0,25,25,25,1,,,,,,,,,,,,,,,,,,,,,,,,
,,,,,,,,pngimages/55_toilet.png,Haley Kaylor,1102,2020-11-10_11h57.24.249,experiment,2020.1.3,Linux x86_64,60,,,,,,,,,,,,,,,,,test2,,,,,,,,,,,,,,,,,,,,,,,,,,,,,novelaudio/55_pikiki3.ogg,novelaudio/55_pikiki1.ogg,2,,,,,,j,0.268115,0,26,26,26,1,,,,,,,,,,,,,,,,,,,,,,,,
,,,,,,,,pngimages/43_guitar.png,Haley Kaylor,1102,2020-11-10_11h57.24.249,experiment,2020.1.3,Linux x86_64,60,,,,,,,,,,,,,,,,,test2,,,,,,,,,,,,,,,,,,,,,,,,,,,,,novelaudio/43_potaki3.ogg,novelaudio/43_potaki2.ogg,2,,,,,,j,0.720675,0,27,27,27,1,,,,,,,,,,,,,,,,,,,,,,,,
,,,,,,,,pngimages/53_hammer.png,Haley Kaylor,1102,2020-11-10_11h57.24.249,experiment,2020.1.3,Linux x86_64,60,,,,,,,,,,,,,,,,,test2,,,,,,,,,,,,,,,,,,,,,,,,,,,,,novelaudio/53_patapo1.ogg,novelaudio/53_patapo2.ogg,1,,,,,,f,1.58137,0,28,28,28,1,,,,,,,,,,,,,,,,,,,,,,,,
,,,,,,,,pngimages/66_safe.png,Haley Kaylor,1102,2020-11-10_11h57.24.249,experiment,2020.1.3,Linux x86_64,60,,,,,,,,,,,,,,,,,test2,,,,,,,,,,,,,,,,,,,,,,,,,,,,,novelaudio/66_kopipa2.ogg,novelaudio/66_kopipa3.ogg,2,,,,,,f,0.641905,0,29,29,29,1,,,,,,,,,,,,,,,,,,,,,,,,
,,,,,,,,pngimages/36_microwave.png,Haley Kaylor,1102,2020-11-10_11h57.24.249,experiment,2020.1.3,Linux x86_64,60,,,,,,,,,,,,,,,,,test2,,,,,,,,,,,,,,,,,,,,,,,,,,,,,novelaudio/36_pipapa2.ogg,novelaudio/36_pipapa1.ogg,1,,,,,,f,2.05116,0,30,30,30,1,,,,,,,,,,,,,,,,,,,,,,,,
,,,,,,,,pngimages/81_cat.png,Haley Kaylor,1102,2020-11-10_11h57.24.249,experiment,2020.1.3,Linux x86_64,60,,,,,,,,,,,,,,,,,test2,,,,,,,,,,,,,,,,,,,,,,,,,,,,,novelaudio/81_kakapa3.ogg,novelaudio/81_kakapa1.ogg,2,,,,,,f,0.8571,0,31,31,31,1,,,,,,,,,,,,,,,,,,,,,,,,
,,,,,,,,pngimages/28_grape.png,Haley Kaylor,1102,2020-11-10_11h57.24.249,experiment,2020.1.3,Linux x86_64,60,,,,,,,,,,,,,,,,,test2,,,,,,,,,,,,,,,,,,,,,,,,,,,,,novelaudio/28_pipiki2.ogg,novelaudio/28_pipiki1.ogg,2,,,,,,j,6.02832,0,32,32,32,1,,,,,,,,,,,,,,,,,,,,,,,,
,,,,,,,,pngimages/65_wrench.png,Haley Kaylor,1102,2020-11-10_11h57.24.249,experiment,2020.1.3,Linux x86_64,60,,,,,,,,,,,,,,,,,test2,,,,,,,,,,,,,,,,,,,,,,,,,,,,,novelaudio/65_totipo3.ogg,novelaudio/65_totipo1.ogg,2,,,,,,j,1.85202,0,33,33,33,1,,,,,,,,,,,,,,,,,,,,,,,,
,,,,,,,,pngimages/51_pencil.png,Haley Kaylor,1102,2020-11-10_11h57.24.249,experiment,2020.1.3,Linux x86_64,60,,,,,,,,,,,,,,,,,test2,,,,,,,,,,,,,,,,,,,,,,,,,,,,,novelaudio/51_tapopa1.ogg,novelaudio/51_tapopa3.ogg,1,,,,,,f,0.052845,0,34,34,34,1,,,,,,,,,,,,,,,,,,,,,,,,
,,,,,,,,pngimages/44_envelope.png,Haley Kaylor,1102,2020-11-10_11h57.24.249,experiment,2020.1.3,Linux x86_64,60,,,,,,,,,,,,,,,,,test2,,,,,,,,,,,,,,,,,,,,,,,,,,,,,novelaudio/44_pokato3.ogg,novelaudio/44_pokato2.ogg,2,,,,,,j,0.70395,0,35,35,35,1,,,,,,,,,,,,,,,,,,,,,,,,
,,,,,,,,pngimages/70_hand.png,Haley Kaylor,1102,2020-11-10_11h57.24.249,experiment,2020.1.3,Linux x86_64,60,,,,,,,,,,,,,,,,,test2,,,,,,,,,,,,,,,,,,,,,,,,,,,,,novelaudio/70_kopati1.ogg,novelaudio/70_kopati2.ogg,2,,,,,,f,0.785905,0,36,36,36,1,,,,,,,,,,,,,,,,,,,,,,,,
,,,,,,,,pngimages/31_tomato.png,Haley Kaylor,1102,2020-11-10_11h57.24.249,experiment,2020.1.3,Linux x86_64,60,,,,,,,,,,,,,,,,,test2,,,,,,,,,,,,,,,,,,,,,,,,,,,,,novelaudio/31_kikopi1.ogg,novelaudio/31_kikopi2.ogg,2,,,,,,f,2.36996,0,37,37,37,1,,,,,,,,,,,,,,,,,,,,,,,,
,,,,,,,,pngimages/69_tooth.png,Haley Kaylor,1102,2020-11-10_11h57.24.249,experiment,2020.1.3,Linux x86_64,60,,,,,,,,,,,,,,,,,test2,,,,,,,,,,,,,,,,,,,,,,,,,,,,,novelaudio/69_kotota2.ogg,novelaudio/69_kotota3.ogg,2,,,,,,j,1.672995,0,38,38,38,1,,,,,,,,,,,,,,,,,,,,,,,,
,,,,,,,,pngimages/63_chair.png,Haley Kaylor,1102,2020-11-10_11h57.24.249,experiment,2020.1.3,Linux x86_64,60,,,,,,,,,,,,,,,,,test2,,,,,,,,,,,,,,,,,,,,,,,,,,,,,novelaudio/63_pitapa2.ogg,novelaudio/63_pitapa3.ogg,1,,,,,,j,3.868645,0,39,39,39,1,,,,,,,,,,,,,,,,,,,,,,,,
,,,,,,,,pngimages/42_harp.png,Haley Kaylor,1102,2020-11-10_11h57.24.249,experiment,2020.1.3,Linux x86_64,60,,,,,,,,,,,,,,,,,test2,,,,,,,,,,,,,,,,,,,,,,,,,,,,,novelaudio/42_tokota2.ogg,novelaudio/42_tokota3.ogg,2,,,,,,j,2.118175,0,40,40,40,1,,,,,,,,,,,,,,,,,,,,,,,,
,,,,,,,,pngimages/56_towel.png,Haley Kaylor,1102,2020-11-10_11h57.24.249,experiment,2020.1.3,Linux x86_64,60,,,,,,,,,,,,,,,,,test2,,,,,,,,,,,,,,,,,,,,,,,,,,,,,novelaudio/56_pipiko3.ogg,novelaudio/56_pipiko1.ogg,1,,,,,,f,0.952935,0,41,41,41,1,,,,,,,,,,,,,,,,,,,,,,,,
,,,,,,,,pngimages/77_bear.png,Haley Kaylor,1102,2020-11-10_11h57.24.249,experiment,2020.1.3,Linux x86_64,60,,,,,,,,,,,,,,,,,test2,,,,,,,,,,,,,,,,,,,,,,,,,,,,,novelaudio/77_takopo1.ogg,novelaudio/77_takopo3.ogg,1,,,,,,j,5.12292,0,42,42,42,1,,,,,,,,,,,,,,,,,,,,,,,,
,,,,,,,,pngimages/60_firewood.png,Haley Kaylor,1102,2020-11-10_11h57.24.249,experiment,2020.1.3,Linux x86_64,60,,,,,,,,,,,,,,,,,test2,,,,,,,,,,,,,,,,,,,,,,,,,,,,,novelaudio/60_pipopa3.ogg,novelaudio/60_pipopa1.ogg,1,,,,,,f,0.985095,0,43,43,43,1,,,,,,,,,,,,,,,,,,,,,,,,
,,,,,,,,pngimages/76_rabbit.png,Haley Kaylor,1102,2020-11-10_11h57.24.249,experiment,2020.1.3,Linux x86_64,60,,,,,,,,,,,,,,,,,test2,,,,,,,,,,,,,,,,,,,,,,,,,,,,,novelaudio/76_patoti1.ogg,novelaudio/76_patoti2.ogg,1,,,,,,f,4.099005,0,44,44,44,1,,,,,,,,,,,,,,,,,,,,,,,,
,,,,,,,,pngimages/80_dog.png,Haley Kaylor,1102,2020-11-10_11h57.24.249,experiment,2020.1.3,Linux x86_64,60,,,,,,,,,,,,,,,,,test2,,,,,,,,,,,,,,,,,,,,,,,,,,,,,novelaudio/80_tatato2.ogg,novelaudio/80_tatato1.ogg,2,,,,,,j,1.11746,0,45,45,45,1,,,,,,,,,,,,,,,,,,,,,,,,
,,,,,,,,pngimages/47_notebook.png,Haley Kaylor,1102,2020-11-10_11h57.24.249,experiment,2020.1.3,Linux x86_64,60,,,,,,,,,,,,,,,,,test2,,,,,,,,,,,,,,,,,,,,,,,,,,,,,novelaudio/47_takiko1.ogg,novelaudio/47_takiko2.ogg,1,,,,,,f,0.402665,0,46,46,46,1,,,,,,,,,,,,,,,,,,,,,,,,
,,,,,,,,pngimages/73_car.png,Haley Kaylor,1102,2020-11-10_11h57.24.249,experiment,2020.1.3,Linux x86_64,60,,,,,,,,,,,,,,,,,test2,,,,,,,,,,,,,,,,,,,,,,,,,,,,,novelaudio/73_takiti2.ogg,novelaudio/73_takiti1.ogg,2,,,,,,j,1.61818,0,47,47,47,1,,,,,,,,,,,,,,,,,,,,,,,,
,,,,,,,,pngimages/58_nail.png,Haley Kaylor,1102,2020-11-10_11h57.24.249,experiment,2020.1.3,Linux x86_64,60,,,,,,,,,,,,,,,,,test2,,,,,,,,,,,,,,,,,,,,,,,,,,,,,novelaudio/58_kipoki3.ogg,novelaudio/58_kipoki2.ogg,2,,,,,,f,3.870045,0,48,48,48,1,,,,,,,,,,,,,,,,,,,,,,,,
,,,,,,,,pngimages/71_eye.png,Haley Kaylor,1102,2020-11-10_11h57.24.249,experiment,2020.1.3,Linux x86_64,60,,,,,,,,,,,,,,,,,test2,,,,,,,,,,,,,,,,,,,,,,,,,,,,,novelaudio/71_kotato1.ogg,novelaudio/71_kotato2.ogg,2,,,,,,j,1.68822,0,49,49,49,1,,,,,,,,,,,,,,,,,,,,,,,,
,,,,,,,,pngimages/34_knife.png,Haley Kaylor,1102,2020-11-10_11h57.24.249,experiment,2020.1.3,Linux x86_64,60,,,,,,,,,,,,,,,,,test2,,,,,,,,,,,,,,,,,,,,,,,,,,,,,novelaudio/34_kipaki2.ogg,novelaudio/34_kipaki1.ogg,1,,,,,,f,1.13571,0,50,50,50,1,,,,,,,,,,,,,,,,,,,,,,,,
,,,,,,,,pngimages/33_watermelon.png,Haley Kaylor,1102,2020-11-10_11h57.24.249,experiment,2020.1.3,Linux x86_64,60,,,,,,,,,,,,,,,,,test2,,,,,,,,,,,,,,,,,,,,,,,,,,,,,novelaudio/33_tipoka1.ogg,novelaudio/33_tipoka3.ogg,2,,,,,,f,0.652955,0,51,51,51,1,,,,,,,,,,,,,,,,,,,,,,,,
,,,,,,,,pngimages/30_mushroom.png,Haley Kaylor,1102,2020-11-10_11h57.24.249,experiment,2020.1.3,Linux x86_64,60,,,,,,,,,,,,,,,,,test2,,,,,,,,,,,,,,,,,,,,,,,,,,,,,novelaudio/30_tikipa3.ogg,novelaudio/30_tikipa2.ogg,1,,,,,,f,2.83322,0,52,52,52,1,,,,,,,,,,,,,,,,,,,,,,,,
,,,,,,,,pngimages/38_plate.png,Haley Kaylor,1102,2020-11-10_11h57.24.249,experiment,2020.1.3,Linux x86_64,60,,,,,,,,,,,,,,,,,test2,,,,,,,,,,,,,,,,,,,,,,,,,,,,,novelaudio/38_kokiko2.ogg,novelaudio/38_kokiko1.ogg,2,,,,,,j,2.48974,0,53,53,53,1,,,,,,,,,,,,,,,,,,,,,,,,
,,,,,,,,pngimages/65_wrench.png,Haley Kaylor,1102,2020-11-10_11h57.24.249,experiment,2020.1.3,Linux x86_64,60,,,,,,,,,,,,,,,,,test3,,,,,,,,,,,,,,,,,,,,,,,,,,,,,novelaudio/65_totipo1.ogg,novelaudio/65_totipo3.ogg,1,,,,,,,,,,,,,space,3.053785,f,0.535835,0,0,0,0,1,,,,,,,,,,,,,,,
,,,,,,,,pngimages/68_heart.png,Haley Kaylor,1102,2020-11-10_11h57.24.249,experiment,2020.1.3,Linux x86_64,60,,,,,,,,,,,,,,,,,test3,,,,,,,,,,,,,,,,,,,,,,,,,,,,,novelaudio/68_pokopo2.ogg,novelaudio/68_pokopo1.ogg,2,,,,,,,,,,,,,,,j,0.47599,0,1,1,1,1,,,,,,,,,,,,,,,
,,,,,,,,pngimages/49_calculator.png,Haley Kaylor,1102,2020-11-10_11h57.24.249,experiment,2020.1.3,Linux x86_64,60,,,,,,,,,,,,,,,,,test3,,,,,,,,,,,,,,,,,,,,,,,,,,,,,novelaudio/49_tatopi1.ogg,novelaudio/49_tatopi3.ogg,1,,,,,,,,,,,,,,,f,0.07744,0,2,2,2,1,,,,,,,,,,,,,,,
,,,,,,,,pngimages/45_scissors.png,Haley Kaylor,1102,2020-11-10_11h57.24.249,experiment,2020.1.3,Linux x86_64,60,,,,,,,,,,,,,,,,,test3,,,,,,,,,,,,,,,,,,,,,,,,,,,,,novelaudio/45_totaka2.ogg,novelaudio/45_totaka3.ogg,1,,,,,,,,,,,,,,,f,0.42524,0,3,3,3,1,,,,,,,,,,,,,,,
,,,,,,,,pngimages/58_nail.png,Haley Kaylor,1102,2020-11-10_11h57.24.249,experiment,2020.1.3,Linux x86_64,60,,,,,,,,,,,,,,,,,test3,,,,,,,,,,,,,,,,,,,,,,,,,,,,,novelaudio/58_kipoki2.ogg,novelaudio/58_kipoki3.ogg,1,,,,,,,,,,,,,,,f,0.51679,0,4,4,4,1,,,,,,,,,,,,,,,
,,,,,,,,pngimages/31_tomato.png,Haley Kaylor,1102,2020-11-10_11h57.24.249,experiment,2020.1.3,Linux x86_64,60,,,,,,,,,,,,,,,,,test3,,,,,,,,,,,,,,,,,,,,,,,,,,,,,novelaudio/31_kikopi2.ogg,novelaudio/31_kikopi3.ogg,1,,,,,,,,,,,,,,,f,1.662415,0,5,5,5,1,,,,,,,,,,,,,,,
,,,,,,,,pngimages/46_paper.png,Haley Kaylor,1102,2020-11-10_11h57.24.249,experiment,2020.1.3,Linux x86_64,60,,,,,,,,,,,,,,,,,test3,,,,,,,,,,,,,,,,,,,,,,,,,,,,,novelaudio/46_tapiti2.ogg,novelaudio/46_tapiti1.ogg,2,,,,,,,,,,,,,,,j,0.428495,0,6,6,6,1,,,,,,,,,,,,,,,
,,,,,,,,pngimages/33_watermelon.png,Haley Kaylor,1102,2020-11-10_11h57.24.249,experiment,2020.1.3,Linux x86_64,60,,,,,,,,,,,,,,,,,test3,,,,,,,,,,,,,,,,,,,,,,,,,,,,,novelaudio/33_tipoka3.ogg,novelaudio/33_tipoka2.ogg,1,,,,,,,,,,,,,,,f,0.28163,0,7,7,7,1,,,,,,,,,,,,,,,
,,,,,,,,pngimages/29_cherry.png,Haley Kaylor,1102,2020-11-10_11h57.24.249,experiment,2020.1.3,Linux x86_64,60,,,,,,,,,,,,,,,,,test3,,,,,,,,,,,,,,,,,,,,,,,,,,,,,novelaudio/29_pipito3.ogg,novelaudio/29_pipito1.ogg,1,,,,,,,,,,,,,,,f,1.57813,0,8,8,8,1,,,,,,,,,,,,,,,
,,,,,,,,pngimages/41_piano.png,Haley Kaylor,1102,2020-11-10_11h57.24.249,experiment,2020.1.3,Linux x86_64,60,,,,,,,,,,,,,,,,,test3,,,,,,,,,,,,,,,,,,,,,,,,,,,,,novelaudio/41_pototo1.ogg,novelaudio/41_pototo2.ogg,1,,,,,,,,,,,,,,,f,1.761995,0,9,9,9,1,,,,,,,,,,,,,,,
,,,,,,,,pngimages/67_laptop.png,Haley Kaylor,1102,2020-11-10_11h57.24.249,experiment,2020.1.3,Linux x86_64,60,,,,,,,,,,,,,,,,,test3,,,,,,,,,,,,,,,,,,,,,,,,,,,,,novelaudio/67_tokoki2.ogg,novelaudio/67_tokoki1.ogg,2,,,,,,,,,,,,,,,j,0.40448,0,10,10,10,1,,,,,,,,,,,,,,,
,,,,,,,,pngimages/43_guitar.png,Haley Kaylor,1102,2020-11-10_11h57.24.249,experiment,2020.1.3,Linux x86_64,60,,,,,,,,,,,,,,,,,test3,,,,,,,,,,,,,,,,,,,,,,,,,,,,,novelaudio/43_potaki2.ogg,novelaudio/43_potaki3.ogg,1,,,,,,,,,,,,,,,f,0.525705,0,11,11,11,1,,,,,,,,,,,,,,,
,,,,,,,,pngimages/69_tooth.png,Haley Kaylor,1102,2020-11-10_11h57.24.249,experiment,2020.1.3,Linux x86_64,60,,,,,,,,,,,,,,,,,test3,,,,,,,,,,,,,,,,,,,,,,,,,,,,,novelaudio/69_kotota1.ogg,novelaudio/69_kotota3.ogg,2,,,,,,,,,,,,,,,f,0.27714,0,12,12,12,1,,,,,,,,,,,,,,,
,,,,,,,,pngimages/79_pig.png,Haley Kaylor,1102,2020-11-10_11h57.24.249,experiment,2020.1.3,Linux x86_64,60,,,,,,,,,,,,,,,,,test3,,,,,,,,,,,,,,,,,,,,,,,,,,,,,novelaudio/79_katapi1.ogg,novelaudio/79_katapi2.ogg,1,,,,,,,,,,,,,,,f,0.327795,0,13,13,13,1,,,,,,,,,,,,,,,
,,,,,,,,pngimages/44_envelope.png,Haley Kaylor,1102,2020-11-10_11h57.24.249,experiment,2020.1.3,Linux x86_64,60,,,,,,,,,,,,,,,,,test3,,,,,,,,,,,,,,,,,,,,,,,,,,,,,novelaudio/44_pokato1.ogg,novelaudio/44_pokato2.ogg,2,,,,,,,,,,,,,,,f,0.892795,0,14,14,14,1,,,,,,,,,,,,,,,
,,,,,,,,pngimages/80_dog.png,Haley Kaylor,1102,2020-11-10_11h57.24.249,experiment,2020.1.3,Linux x86_64,60,,,,,,,,,,,,,,,,,test3,,,,,,,,,,,,,,,,,,,,,,,,,,,,,novelaudio/80_tatato1.ogg,novelaudio/80_tatato2.ogg,1,,,,,,,,,,,,,,,j,0.633175,0,15,15,15,1,,,,,,,,,,,,,,,
,,,,,,,,pngimages/55_toilet.png,Haley Kaylor,1102,2020-11-10_11h57.24.249,experiment,2020.1.3,Linux x86_64,60,,,,,,,,,,,,,,,,,test3,,,,,,,,,,,,,,,,,,,,,,,,,,,,,novelaudio/55_pikiki1.ogg,novelaudio/55_pikiki3.ogg,1,,,,,,,,,,,,,,,f,1.756575,0,16,16,16,1,,,,,,,,,,,,,,,
,,,,,,,,pngimages/72_nose.png,Haley Kaylor,1102,2020-11-10_11h57.24.249,experiment,2020.1.3,Linux x86_64,60,,,,,,,,,,,,,,,,,test3,,,,,,,,,,,,,,,,,,,,,,,,,,,,,novelaudio/72_topata3.ogg,novelaudio/72_topata2.ogg,2,,,,,,,,,,,,,,,f,1.58131,0,17,17,17,1,,,,,,,,,,,,,,,
,,,,,,,,pngimages/62_screwdriver.png,Haley Kaylor,1102,2020-11-10_11h57.24.249,experiment,2020.1.3,Linux x86_64,60,,,,,,,,,,,,,,,,,test3,,,,,,,,,,,,,,,,,,,,,,,,,,,,,novelaudio/62_pitako3.ogg,novelaudio/62_pitako2.ogg,2,,,,,,,,,,,,,,,f,1.2759,0,18,18,18,1,,,,,,,,,,,,,,,
,,,,,,,,pngimages/35_skillet.png,Haley Kaylor,1102,2020-11-10_11h57.24.249,experiment,2020.1.3,Linux x86_64,60,,,,,,,,,,,,,,,,,test3,,,,,,,,,,,,,,,,,,,,,,,,,,,,,novelaudio/35_titato2.ogg,novelaudio/35_titato3.ogg,1,,,,,,,,,,,,,,,f,0.5785,0,19,19,19,1,,,,,,,,,,,,,,,
,,,,,,,,pngimages/50_ruler.png,Haley Kaylor,1102,2020-11-10_11h57.24.249,experiment,2020.1.3,Linux x86_64,60,,,,,,,,,,,,,,,,,test3,,,,,,,,,,,,,,,,,,,,,,,,,,,,,novelaudio/50_katoko3.ogg,novelaudio/50_katoko1.ogg,2,,,,,,,,,,,,,,,j,0.526895,0,20,20,20,1,,,,,,,,,,,,,,,
,,,,,,,,pngimages/59_umbrella.png,Haley Kaylor,1102,2020-11-10_11h57.24.249,experiment,2020.1.3,Linux x86_64,60,,,,,,,,,,,,,,,,,test3,,,,,,,,,,,,,,,,,,,,,,,,,,,,,novelaudio/59_tipoko2.ogg,novelaudio/59_tipoko3.ogg,1,,,,,,,,,,,,,,,j,1.94422,0,21,21,21,1,,,,,,,,,,,,,,,
,,,,,,,,pngimages/47_notebook.png,Haley Kaylor,1102,2020-11-10_11h57.24.249,experiment,2020.1.3,Linux x86_64,60,,,,,,,,,,,,,,,,,test3,,,,,,,,,,,,,,,,,,,,,,,,,,,,,novelaudio/47_takiko3.ogg,novelaudio/47_takiko1.ogg,2,,,,,,,,,,,,,,,j,0.8429,0,22,22,22,1,,,,,,,,,,,,,,,
,,,,,,,,pngimages/28_grape.png,Haley Kaylor,1102,2020-11-10_11h57.24.249,experiment,2020.1.3,Linux x86_64,60,,,,,,,,,,,,,,,,,test3,,,,,,,,,,,,,,,,,,,,,,,,,,,,,novelaudio/28_pipiki3.ogg,novelaudio/28_pipiki1.ogg,2,,,,,,,,,,,,,,,f,0.86737,0,23,23,23,1,,,,,,,,,,,,,,,
,,,,,,,,pngimages/64_shovel.png,Haley Kaylor,1102,2020-11-10_11h57.24.249,experiment,2020.1.3,Linux x86_64,60,,,,,,,,,,,,,,,,,test3,,,,,,,,,,,,,,,,,,,,,,,,,,,,,novelaudio/64_popiti1.ogg,novelaudio/64_popiti2.ogg,1,,,,,,,,,,,,,,,f,0.732615,0,24,24,24,1,,,,,,,,,,,,,,,
,,,,,,,,pngimages/34_knife.png,Haley Kaylor,1102,2020-11-10_11h57.24.249,experiment,2020.1.3,Linux x86_64,60,,,,,,,,,,,,,,,,,test3,,,,,,,,,,,,,,,,,,,,,,,,,,,,,novelaudio/34_kipaki2.ogg,novelaudio/34_kipaki3.ogg,1,,,,,,,,,,,,,,,j,4.03312,0,25,25,25,1,,,,,,,,,,,,,,,
,,,,,,,,pngimages/48_brush.png,Haley Kaylor,1102,2020-11-10_11h57.24.249,experiment,2020.1.3,Linux x86_64,60,,,,,,,,,,,,,,,,,test3,,,,,,,,,,,,,,,,,,,,,,,,,,,,,novelaudio/48_pakipa2.ogg,novelaudio/48_pakipa1.ogg,2,,,,,,,,,,,,,,,j,1.19124,0,26,26,26,1,,,,,,,,,,,,,,,
,,,,,,,,pngimages/56_towel.png,Haley Kaylor,1102,2020-11-10_11h57.24.249,experiment,2020.1.3,Linux x86_64,60,,,,,,,,,,,,,,,,,test3,,,,,,,,,,,,,,,,,,,,,,,,,,,,,novelaudio/56_pipiko2.ogg,novelaudio/56_pipiko3.ogg,2,,,,,,,,,,,,,,,j,0.330805,0,27,27,27,1,,,,,,,,,,,,,,,
,,,,,,,,pngimages/81_cat.png,Haley Kaylor,1102,2020-11-10_11h57.24.249,experiment,2020.1.3,Linux x86_64,60,,,,,,,,,,,,,,,,,test3,,,,,,,,,,,,,,,,,,,,,,,,,,,,,novelaudio/81_kakapa1.ogg,novelaudio/81_kakapa3.ogg,1,,,,,,,,,,,,,,,f,1.143955,0,28,28,28,1,,,,,,,,,,,,,,,
,,,,,,,,pngimages/32_greenpepper.png,Haley Kaylor,1102,2020-11-10_11h57.24.249,experiment,2020.1.3,Linux x86_64,60,,,,,,,,,,,,,,,,,test3,,,,,,,,,,,,,,,,,,,,,,,,,,,,,novelaudio/32_kipoto2.ogg,novelaudio/32_kipoto3.ogg,1,,,,,,,,,,,,,,,f,0.5287,0,29,29,29,1,,,,,,,,,,,,,,,
,,,,,,,,pngimages/57_flashlight.png,Haley Kaylor,1102,2020-11-10_11h57.24.249,experiment,2020.1.3,Linux x86_64,60,,,,,,,,,,,,,,,,,test3,,,,,,,,,,,,,,,,,,,,,,,,,,,,,novelaudio/57_tipipa3.ogg,novelaudio/57_tipipa1.ogg,1,,,,,,,,,,,,,,,f,1.33013,0,30,30,30,1,,,,,,,,,,,,,,,
,,,,,,,,pngimages/78_cow.png,Haley Kaylor,1102,2020-11-10_11h57.24.249,experiment,2020.1.3,Linux x86_64,60,,,,,,,,,,,,,,,,,test3,,,,,,,,,,,,,,,,,,,,,,,,,,,,,novelaudio/78_kakoka3.ogg,novelaudio/78_kakoka1.ogg,2,,,,,,,,,,,,,,,f,0.045595,0,31,31,31,1,,,,,,,,,,,,,,,
,,,,,,,,pngimages/61_key.png,Haley Kaylor,1102,2020-11-10_11h57.24.249,experiment,2020.1.3,Linux x86_64,60,,,,,,,,,,,,,,,,,test3,,,,,,,,,,,,,,,,,,,,,,,,,,,,,novelaudio/61_pikati1.ogg,novelaudio/61_pikati2.ogg,2,,,,,,,,,,,,,,,f,0.287115,0,32,32,32,1,,,,,,,,,,,,,,,
,,,,,,,,pngimages/37_mug.png,Haley Kaylor,1102,2020-11-10_11h57.24.249,experiment,2020.1.3,Linux x86_64,60,,,,,,,,,,,,,,,,,test3,,,,,,,,,,,,,,,,,,,,,,,,,,,,,novelaudio/37_kokiti3.ogg,novelaudio/37_kokiti1.ogg,2,,,,,,,,,,,,,,,j,1.326565,0,33,33,33,1,,,,,,,,,,,,,,,
,,,,,,,,pngimages/39_fork.png,Haley Kaylor,1102,2020-11-10_11h57.24.249,experiment,2020.1.3,Linux x86_64,60,,,,,,,,,,,,,,,,,test3,,,,,,,,,,,,,,,,,,,,,,,,,,,,,novelaudio/39_kotipa2.ogg,novelaudio/39_kotipa3.ogg,2,,,,,,,,,,,,,,,f,1.32729,0,34,34,34,1,,,,,,,,,,,,,,,
,,,,,,,,pngimages/51_pencil.png,Haley Kaylor,1102,2020-11-10_11h57.24.249,experiment,2020.1.3,Linux x86_64,60,,,,,,,,,,,,,,,,,test3,,,,,,,,,,,,,,,,,,,,,,,,,,,,,novelaudio/51_tapopa2.ogg,novelaudio/51_tapopa1.ogg,2,,,,,,,,,,,,,,,f,0.47635,0,35,35,35,1,,,,,,,,,,,,,,,
,,,,,,,,pngimages/36_microwave.png,Haley Kaylor,1102,2020-11-10_11h57.24.249,experiment,2020.1.3,Linux x86_64,60,,,,,,,,,,,,,,,,,test3,,,,,,,,,,,,,,,,,,,,,,,,,,,,,novelaudio/36_pipapa2.ogg,novelaudio/36_pipapa3.ogg,1,,,,,,,,,,,,,,,f,2.51236,0,36,36,36,1,,,,,,,,,,,,,,,
,,,,,,,,pngimages/53_hammer.png,Haley Kaylor,1102,2020-11-10_11h57.24.249,experiment,2020.1.3,Linux x86_64,60,,,,,,,,,,,,,,,,,test3,,,,,,,,,,,,,,,,,,,,,,,,,,,,,novelaudio/53_patapo3.ogg,novelaudio/53_patapo1.ogg,2,,,,,,,,,,,,,,,f,0.67998,0,37,37,37,1,,,,,,,,,,,,,,,
,,,,,,,,pngimages/38_plate.png,Haley Kaylor,1102,2020-11-10_11h57.24.249,experiment,2020.1.3,Linux x86_64,60,,,,,,,,,,,,,,,,,test3,,,,,,,,,,,,,,,,,,,,,,,,,,,,,novelaudio/38_kokiko2.ogg,novelaudio/38_kokiko1.ogg,2,,,,,,,,,,,,,,,j,0.12764,0,38,38,38,1,,,,,,,,,,,,,,,
,,,,,,,,pngimages/74_boat.png,Haley Kaylor,1102,2020-11-10_11h57.24.249,experiment,2020.1.3,Linux x86_64,60,,,,,,,,,,,,,,,,,test3,,,,,,,,,,,,,,,,,,,,,,,,,,,,,novelaudio/74_tatiko1.ogg,novelaudio/74_tatiko2.ogg,1,,,,,,,,,,,,,,,f,0.012665,0,39,39,39,1,,,,,,,,,,,,,,,
,,,,,,,,pngimages/63_chair.png,Haley Kaylor,1102,2020-11-10_11h57.24.249,experiment,2020.1.3,Linux x86_64,60,,,,,,,,,,,,,,,,,test3,,,,,,,,,,,,,,,,,,,,,,,,,,,,,novelaudio/63_pitapa1.ogg,novelaudio/63_pitapa2.ogg,2,,,,,,,,,,,,,,,j,0.501255,0,40,40,40,1,,,,,,,,,,,,,,,
,,,,,,,,pngimages/77_bear.png,Haley Kaylor,1102,2020-11-10_11h57.24.249,experiment,2020.1.3,Linux x86_64,60,,,,,,,,,,,,,,,,,test3,,,,,,,,,,,,,,,,,,,,,,,,,,,,,novelaudio/77_takopo3.ogg,novelaudio/77_takopo1.ogg,2,,,,,,,,,,,,,,,f,0.39079,0,41,41,41,1,,,,,,,,,,,,,,,
,,,,,,,,pngimages/52_newspaper.png,Haley Kaylor,1102,2020-11-10_11h57.24.249,experiment,2020.1.3,Linux x86_64,60,,,,,,,,,,,,,,,,,test3,,,,,,,,,,,,,,,,,,,,,,,,,,,,,novelaudio/52_pakaki1.ogg,novelaudio/52_pakaki3.ogg,1,,,,,,,,,,,,,,,f,0.734165,0,42,42,42,1,,,,,,,,,,,,,,,
,,,,,,,,pngimages/30_mushroom.png,Haley Kaylor,1102,2020-11-10_11h57.24.249,experiment,2020.1.3,Linux x86_64,60,,,,,,,,,,,,,,,,,test3,,,,,,,,,,,,,,,,,,,,,,,,,,,,,novelaudio/30_tikipa3.ogg,novelaudio/30_tikipa2.ogg,1,,,,,,,,,,,,,,,f,0.442745,0,43,43,43,1,,,,,,,,,,,,,,,
,,,,,,,,pngimages/70_hand.png,Haley Kaylor,1102,2020-11-10_11h57.24.249,experiment,2020.1.3,Linux x86_64,60,,,,,,,,,,,,,,,,,test3,,,,,,,,,,,,,,,,,,,,,,,,,,,,,novelaudio/70_kopati3.ogg,novelaudio/70_kopati2.ogg,2,,,,,,,,,,,,,,,f,0.34484,0,44,44,44,1,,,,,,,,,,,,,,,
,,,,,,,,pngimages/60_firewood.png,Haley Kaylor,1102,2020-11-10_11h57.24.249,experiment,2020.1.3,Linux x86_64,60,,,,,,,,,,,,,,,,,test3,,,,,,,,,,,,,,,,,,,,,,,,,,,,,novelaudio/60_pipopa3.ogg,novelaudio/60_pipopa1.ogg,1,,,,,,,,,,,,,,,j,2.375485,0,45,45,45,1,,,,,,,,,,,,,,,
,,,,,,,,pngimages/75_chicken.png,Haley Kaylor,1102,2020-11-10_11h57.24.249,experiment,2020.1.3,Linux x86_64,60,,,,,,,,,,,,,,,,,test3,,,,,,,,,,,,,,,,,,,,,,,,,,,,,novelaudio/75_kakita3.ogg,novelaudio/75_kakita1.ogg,2,,,,,,,,,,,,,,,f,2.02909,0,46,46,46,1,,,,,,,,,,,,,,,
,,,,,,,,pngimages/54_toiletpaper.png,Haley Kaylor,1102,2020-11-10_11h57.24.249,experiment,2020.1.3,Linux x86_64,60,,,,,,,,,,,,,,,,,test3,,,,,,,,,,,,,,,,,,,,,,,,,,,,,novelaudio/54_kapapa3.ogg,novelaudio/54_kapapa1.ogg,2,,,,,,,,,,,,,,,j,0.47559,0,47,47,47,1,,,,,,,,,,,,,,,
,,,,,,,,pngimages/71_eye.png,Haley Kaylor,1102,2020-11-10_11h57.24.249,experiment,2020.1.3,Linux x86_64,60,,,,,,,,,,,,,,,,,test3,,,,,,,,,,,,,,,,,,,,,,,,,,,,,novelaudio/71_kotato1.ogg,novelaudio/71_kotato2.ogg,2,,,,,,,,,,,,,,,j,0.542905,0,48,48,48,1,,,,,,,,,,,,,,,
,,,,,,,,pngimages/42_harp.png,Haley Kaylor,1102,2020-11-10_11h57.24.249,experiment,2020.1.3,Linux x86_64,60,,,,,,,,,,,,,,,,,test3,,,,,,,,,,,,,,,,,,,,,,,,,,,,,novelaudio/42_tokota3.ogg,novelaudio/42_tokota1.ogg,1,,,,,,,,,,,,,,,f,0.3618,0,49,49,49,1,,,,,,,,,,,,,,,
,,,,,,,,pngimages/66_safe.png,Haley Kaylor,1102,2020-11-10_11h57.24.249,experiment,2020.1.3,Linux x86_64,60,,,,,,,,,,,,,,,,,test3,,,,,,,,,,,,,,,,,,,,,,,,,,,,,novelaudio/66_kopipa3.ogg,novelaudio/66_kopipa2.ogg,1,,,,,,,,,,,,,,,f,0.86064,0,50,50,50,1,,,,,,,,,,,,,,,
,,,,,,,,pngimages/73_car.png,Haley Kaylor,1102,2020-11-10_11h57.24.249,experiment,2020.1.3,Linux x86_64,60,,,,,,,,,,,,,,,,,test3,,,,,,,,,,,,,,,,,,,,,,,,,,,,,novelaudio/73_takiti2.ogg,novelaudio/73_takiti1.ogg,2,,,,,,,,,,,,,,,j,0.11174,0,51,51,51,1,,,,,,,,,,,,,,,
,,,,,,,,pngimages/40_spoon.png,Haley Kaylor,1102,2020-11-10_11h57.24.249,experiment,2020.1.3,Linux x86_64,60,,,,,,,,,,,,,,,,,test3,,,,,,,,,,,,,,,,,,,,,,,,,,,,,novelaudio/40_kototi2.ogg,novelaudio/40_kototi1.ogg,2,,,,,,,,,,,,,,,j,0.290715,0,52,52,52,1,,,,,,,,,,,,,,,
,,,,,,,,pngimages/76_rabbit.png,Haley Kaylor,1102,2020-11-10_11h57.24.249,experiment,2020.1.3,Linux x86_64,60,,,,,,,,,,,,,,,,,test3,,,,,,,,,,,,,,,,,,,,,,,,,,,,,novelaudio/76_patoti1.ogg,novelaudio/76_patoti2.ogg,1,,,,,,,,,,,,,,,j,0.48083,0,53,53,53,1,,,,,,,,,,,,,,,
,,,,,,,,,Haley Kaylor,1102,2020-11-10_11h57.24.249,experiment,2020.1.3,Linux x86_64,60,,,,,,,,,,,,,,,,,postTest,,,,,,,,,,,,,,,,,,,,,,,,,,,,,,,,,,,,,,,,,,,,,,,,,,,,,space,8.64677,f,0.33104,0,0,0,0,1,postTest/82_tipiko1.ogg,postTest/82_tipiko1.ogg,postTest/82_tipiko3.ogg,audioA,,
,,,,,,,,,Haley Kaylor,1102,2020-11-10_11h57.24.249,experiment,2020.1.3,Linux x86_64,60,,,,,,,,,,,,,,,,,postTest,,,,,,,,,,,,,,,,,,,,,,,,,,,,,,,,,,,,,,,,,,,,,,,,,,,,,,,f,0.23322,0,1,1,1,1,postTest/83_pitita3.ogg,postTest/83_pitita3.ogg,postTest/83_pitita2.ogg,audioA,,
,,,,,,,,,Haley Kaylor,1102,2020-11-10_11h57.24.249,experiment,2020.1.3,Linux x86_64,60,,,,,,,,,,,,,,,,,postTest,,,,,,,,,,,,,,,,,,,,,,,,,,,,,,,,,,,,,,,,,,,,,,,,,,,,,,,j,0.185105,0,2,2,2,1,postTest/84_pitoka3.ogg,postTest/84_pitoka1.ogg,postTest/84_pitoka1.ogg,audioB,,
,,,,,,,,,Haley Kaylor,1102,2020-11-10_11h57.24.249,experiment,2020.1.3,Linux x86_64,60,,,,,,,,,,,,,,,,,postTest,,,,,,,,,,,,,,,,,,,,,,,,,,,,,,,,,,,,,,,,,,,,,,,,,,,,,,,f,0.08874,0,3,3,3,1,postTest/85_kipata2.ogg,postTest/85_kipata2.ogg,postTest/85_kipata3.ogg,audioA,,
,,,,,,,,,Haley Kaylor,1102,2020-11-10_11h57.24.249,experiment,2020.1.3,Linux x86_64,60,,,,,,,,,,,,,,,,,postTest,,,,,,,,,,,,,,,,,,,,,,,,,,,,,,,,,,,,,,,,,,,,,,,,,,,,,,,j,0.05559,0,4,4,4,1,postTest/86_totipa2.ogg,postTest/86_totipa1.ogg,postTest/86_totipa1.ogg,audioB,,
,,,,,,,,,Haley Kaylor,1102,2020-11-10_11h57.24.249,experiment,2020.1.3,Linux x86_64,60,,,,,,,,,,,,,,,,,postTest,,,,,,,,,,,,,,,,,,,,,,,,,,,,,,,,,,,,,,,,,,,,,,,,,,,,,,,j,1.397755,0,5,5,5,1,postTest/87_kopoko1.ogg,postTest/87_kopoko3.ogg,postTest/87_kopoko3.ogg,audioB,,
,,,,,,,,,Haley Kaylor,1102,2020-11-10_11h57.24.249,experiment,2020.1.3,Linux x86_64,60,,,,,,,,,,,,,,,,,postTest,,,,,,,,,,,,,,,,,,,,,,,,,,,,,,,,,,,,,,,,,,,,,,,,,,,,,,,f,0.169745,0,6,6,6,1,postTest/88_pokota2.ogg,postTest/88_pokota2.ogg,postTest/88_pokota1.ogg,audioA,,
,,,,,,,,,Haley Kaylor,1102,2020-11-10_11h57.24.249,experiment,2020.1.3,Linux x86_64,60,,,,,,,,,,,,,,,,,postTest,,,,,,,,,,,,,,,,,,,,,,,,,,,,,,,,,,,,,,,,,,,,,,,,,,,,,,,j,0.25482,0,7,7,7,1,postTest/89_totako3.ogg,postTest/89_totako2.ogg,postTest/89_totako2.ogg,audioB,,
,,,,,,,,,Haley Kaylor,1102,2020-11-10_11h57.24.249,experiment,2020.1.3,Linux x86_64,60,,,,,,,,,,,,,,,,,postTest,,,,,,,,,,,,,,,,,,,,,,,,,,,,,,,,,,,,,,,,,,,,,,,,,,,,,,,j,0.055145,0,8,8,8,1,postTest/90_papiki2.ogg,postTest/90_papiki3.ogg,postTest/90_papiki3.ogg,audioB,,
,,,,,,,,,Haley Kaylor,1102,2020-11-10_11h57.24.249,experiment,2020.1.3,Linux x86_64,60,,,,,,,,,,,,,,,,,postTest,,,,,,,,,,,,,,,,,,,,,,,,,,,,,,,,,,,,,,,,,,,,,,,,,,,,,,,f,0.102065,0,9,9,9,1,postTest/91_papipo1.ogg,postTest/91_papipo1.ogg,postTest/91_papipo2.ogg,audioA,,
,,,,,,,,,Haley Kaylor,1102,2020-11-10_11h57.24.249,experiment,2020.1.3,Linux x86_64,60,,,,,,,,,,,,,,,,,postTest,,,,,,,,,,,,,,,,,,,,,,,,,,,,,,,,,,,,,,,,,,,,,,,,,,,,,,,j,0.069655,0,10,10,10,1,postTest/92_katoki1.ogg,postTest/92_katoki2.ogg,postTest/92_katoki2.ogg,audioB,,
,,,,,,,,,Haley Kaylor,1102,2020-11-10_11h57.24.249,experiment,2020.1.3,Linux x86_64,60,,,,,,,,,,,,,,,,,postTest,,,,,,,,,,,,,,,,,,,,,,,,,,,,,,,,,,,,,,,,,,,,,,,,,,,,,,,f,0.00598,0,11,11,11,1,postTest/93_pakopa3.ogg,postTest/93_pakopa3.ogg,postTest/93_pakopa1.ogg,audioA,,
,,,,,,,,,Haley Kaylor,1102,2020-11-10_11h57.24.249,experiment,2020.1.3,Linux x86_64,60,,,,,,,,,,,,,,,,,,,,,,,,,,,,,,,,,,,,,,,,,,,,,,,,,,,,,,,,,,,,,,,,,,,,,,,,,,,,,,,,,,,space,1.35487
