condFile,numWords,condFiles,testFiles,alltrain1.thisRepN,alltrain1.thisTrialN,alltrain1.thisN,alltrain1.thisIndex,trial1phases.thisRepN,trial1phases.thisTrialN,trial1phases.thisN,trial1phases.thisIndex,train1Words.thisRepN,train1Words.thisTrialN,train1Words.thisN,train1Words.thisIndex,train1Questions.thisRepN,train1Questions.thisTrialN,train1Questions.thisN,train1Questions.thisIndex,alltrain2.thisRepN,alltrain2.thisTrialN,alltrain2.thisN,alltrain2.thisIndex,trial2phases.thisRepN,trial2phases.thisTrialN,trial2phases.thisN,trial2phases.thisIndex,train2Words.thisRepN,train2Words.thisTrialN,train2Words.thisN,train2Words.thisIndex,train2Questions.thisRepN,train2Questions.thisTrialN,train2Questions.thisN,train2Questions.thisIndex,test1Loop.thisRepN,test1Loop.thisTrialN,test1Loop.thisN,test1Loop.thisIndex,test2Loop.thisRepN,test2Loop.thisTrialN,test2Loop.thisN,test2Loop.thisIndex,instructions.started,instructions.stopped,train1Type.started,train1Type.stopped,skipTrain1Type.keys,skipTrain1Type.rt,skipTrain1Type.started,skipTrain1Type.stopped,train1QuestText.started,train1QuestText.stopped,train1QuestAdvance.keys,train1QuestAdvance.rt,train1QuestAdvance.started,train1QuestAdvance.stopped,train2warning3.started,train2warning3.stopped,train2warning2.started,train2warning2.stopped,train2warning1.started,train2warning1.stopped,skipTrain2Instr.keys,skipTrain2Instr.rt,skipTrain2Instr.started,skipTrain2Instr.stopped,train2Type.started,train2Type.stopped,skipTrain2Type.keys,skipTrain2Type.rt,skipTrain2Type.started,skipTrain2Type.stopped,train2QuestText.started,train2QuestText.stopped,train2QuestAdvance.keys,train2QuestAdvance.rt,train2QuestAdvance.started,train2QuestAdvance.stopped,skipTest1Instr.keys,skipTest1Instr.rt,skipTest1Instr.started,skipTest1Instr.stopped,test1warning3.started,test1warning3.stopped,test1warning2.started,test1warning2.stopped,test1warning1.started,test1warning1.stopped,test1Text.started,test1Text.stopped,key_resp.keys,key_resp.rt,key_resp.started,key_resp.stopped,skipTest2Instr.keys,skipTest2Instr.rt,skipTest2Instr.started,skipTest2Instr.stopped,test2warning3.started,test2warning3.stopped,test2warning2.started,test2warning2.stopped,test2warning1.started,test2warning1.stopped,test2Text.started,test2Text.stopped,key_resp_2.keys,key_resp_2.rt,key_resp_2.started,key_resp_2.stopped,skipTest3Instr.keys,skipTest3Instr.rt,skipTest3Instr.started,skipTest3Instr.stopped,test3warning3.started,test3warning3.stopped,test3warning2.started,test3warning2.stopped,test3warning1.started,test3warning1.stopped,participant,session,date,expName,psychopyVersion,frameRate,
aoiConditions/train1P1LoopCondition.xlsx,two,aoiConditions/train1P1Block1.xlsx,aoiConditions/train1P1Block1Test.xlsx,0,0,0,0,0,0,0,0,,,,,,,,,,,,,,,,,,,,,,,,,,,,,,,,,21.199781002942473,None,31.212629321496934,None,escape,1.2554145082831383,31.212629321496934,None,32.563748848158866,None,escape,0.36677893390879035,32.563748848158866,None,,,,,,,,,,,,,,,,,,,,,,,,,,,,,,,,,,,,,,,,,,,,,,,,,,,,,,,,,,,,,,,,,instr,001,2020_Aug_20_1324,sonority,2020.1.3,47.988548377011696,
aoiConditions/train1P1LoopCondition.xlsx,two,aoiConditions/train1P1Block2.xlsx,aoiConditions/train1P1Block2Test.xlsx,0,0,0,0,0,1,1,1,,,,,,,,,,,,,,,,,,,,,,,,,,,,,,,,,,,,,,,,,33.036948543041945,None,escape,0.9605696182698011,33.036948543041945,None,,,,,,,,,,,,,,,,,,,,,,,,,,,,,,,,,,,,,,,,,,,,,,,,,,,,,,,,,,,,,,,,,instr,001,2020_Aug_20_1324,sonority,2020.1.3,47.988548377011696,
aoiConditions/train1P1LoopCondition.xlsx,two,aoiConditions/train1P1Block3.xlsx,aoiConditions/train1P1Block3Test.xlsx,0,0,0,0,0,2,2,2,,,,,,,,,,,,,,,,,,,,,,,,,,,,,,,,,,,,,,,,,34.08480048645288,None,escape,0.09790971269831061,34.08480048645288,None,,,,,,,,,,,,,,,,,,,,,,,,,,,,,,,,,,,,,,,,,,,,,,,,,,,,,,,,,,,,,,,,,instr,001,2020_Aug_20_1324,sonority,2020.1.3,47.988548377011696,
aoiConditions/train1P1LoopCondition.xlsx,two,aoiConditions/train1P1Block4.xlsx,aoiConditions/train1P1Block4Test.xlsx,0,0,0,0,0,3,3,3,,,,,,,,,,,,,,,,,,,,,,,,,,,,,,,,,,,,,,,,,34.27411834895611,None,escape,0.10614097351208329,34.27411834895611,None,,,,,,,,,,,,,,,,,,,,,,,,,,,,,,,,,,,,,,,,,,,,,,,,,,,,,,,,,,,,,,,,,instr,001,2020_Aug_20_1324,sonority,2020.1.3,47.988548377011696,
aoiConditions/train1P1LoopCondition.xlsx,two,aoiConditions/train1P1Block5.xlsx,aoiConditions/train1P1Block5Test.xlsx,0,0,0,0,0,4,4,4,,,,,,,,,,,,,,,,,,,,,,,,,,,,,,,,,,,,,,,,,34.45980879291892,None,escape,0.11612496431916952,34.45980879291892,None,,,,,,,,,,,,,,,,,,,,,,,,,,,,,,,,,,,,,,,,,,,,,,,,,,,,,,,,,,,,,,,,,instr,001,2020_Aug_20_1324,sonority,2020.1.3,47.988548377011696,
aoiConditions/train1P1LoopCondition.xlsx,two,aoiConditions/train1P1Block6.xlsx,aoiConditions/train1P1Block6Test.xlsx,0,0,0,0,0,5,5,5,,,,,,,,,,,,,,,,,,,,,,,,,,,,,,,,,,,,,,,,,34.6448101522401,None,escape,0.12059967359527946,34.6448101522401,None,,,,,,,,,,,,,,,,,,,,,,,,,,,,,,,,,,,,,,,,,,,,,,,,,,,,,,,,,,,,,,,,,instr,001,2020_Aug_20_1324,sonority,2020.1.3,47.988548377011696,
aoiConditions/train1P1LoopCondition.xlsx,two,aoiConditions/train1P1Block7.xlsx,aoiConditions/train1P1Block7Test.xlsx,0,0,0,0,0,6,6,6,,,,,,,,,,,,,,,,,,,,,,,,,,,,,,,,,,,,,,,,,34.86598752485588,None,escape,0.08703312138095498,34.86598752485588,None,,,,,,,,,,,,,,,,,,,,,,,,,,,,,,,,,,,,,,,,,,,,,,,,,,,,,,,,,,,,,,,,,instr,001,2020_Aug_20_1324,sonority,2020.1.3,47.988548377011696,
aoiConditions/train1P1LoopCondition.xlsx,two,aoiConditions/train1P1Block8.xlsx,aoiConditions/train1P1Block8Test.xlsx,0,0,0,0,0,7,7,7,,,,,,,,,,,,,,,,,,,,,,,,,,,,,,,,,,,,,,,,,35.04818987753242,None,q,0.6074696802534163,35.04818987753242,None,,,,,,,,,,,,,,,,,,,,,,,,,,,,,,,,,,,,,,,,,,,,,,,,,,,,,,,,,,,,,,,,,instr,001,2020_Aug_20_1324,sonority,2020.1.3,47.988548377011696,
aoiConditions/train1P1LoopCondition.xlsx,two,aoiConditions/train1P1Block9.xlsx,aoiConditions/train1P1Block9Test.xlsx,0,0,0,0,0,8,8,8,,,,,,,,,,,,,,,,,,,,,,,,,,,,,,,,,,,,,,,,,35.72808861080557,None,q,0.27011750312522054,35.72808861080557,None,,,,,,,,,,,,,,,,,,,,,,,,,,,,,,,,,,,,,,,,,,,,,,,,,,,,,,,,,,,,,,,,,instr,001,2020_Aug_20_1324,sonority,2020.1.3,47.988548377011696,
aoiConditions/train1P1LoopCondition.xlsx,two,aoiConditions/train1P1Block10.xlsx,aoiConditions/train1P1Block10Test.xlsx,0,0,0,0,0,9,9,9,,,,,,,,,,,,,,,,,,,,,,,,,,,,,,,,,,,,,,,,,36.08968487102538,None,e,0.1970801679417491,36.08968487102538,None,,,,,,,,,,,,,,,,,,,,,,,,,,,,,,,,,,,,,,,,,,,,,,,,,,,,,,,,,,,,,,,,,instr,001,2020_Aug_20_1324,sonority,2020.1.3,47.988548377011696,
aoiConditions/train1P1LoopCondition.xlsx,two,aoiConditions/train1P1Block11.xlsx,aoiConditions/train1P1Block11Test.xlsx,0,0,0,0,0,10,10,10,,,,,,,,,,,,,,,,,,,,,,,,,,,,,,,,,,,,,,,,,36.38638254953548,None,a,0.12462883815169334,36.38638254953548,None,,,,,,,,,,,,,,,,,,,,,,,,,,,,,,,,,,,,,,,,,,,,,,,,,,,,,,,,,,,,,,,,,instr,001,2020_Aug_20_1324,sonority,2020.1.3,47.988548377011696,
aoiConditions/train1P1LoopCondition.xlsx,two,aoiConditions/train1P1Block12.xlsx,aoiConditions/train1P1Block12Test.xlsx,0,0,0,0,0,11,11,11,,,,,,,,,,,,,,,,,,,,,,,,,,,,,,,,,,,,,,,,,36.61428539082408,None,d,0.020772605668753386,36.61428539082408,None,,,,,,,,,,,,,,,,,,,,,,,,,,,,,,,,,,,,,,,,,,,,,,,,,,,,,,,,,,,,,,,,,instr,001,2020_Aug_20_1324,sonority,2020.1.3,47.988548377011696,
aoiConditions/train1P1LoopCondition.xlsx,two,aoiConditions/train1P1Block13.xlsx,aoiConditions/train1P1Block13Test.xlsx,0,0,0,0,0,12,12,12,,,,,,,,,,,,,,,,,,,,,,,,,,,,,,,,,,,,,,,,,36.681033740751445,None,a,0.12927006045356393,36.681033740751445,None,,,,,,,,,,,,,,,,,,,,,,,,,,,,,,,,,,,,,,,,,,,,,,,,,,,,,,,,,,,,,,,,,instr,001,2020_Aug_20_1324,sonority,2020.1.3,47.988548377011696,
aoiConditions/train1P1LoopCondition.xlsx,two,aoiConditions/train1P1Block14.xlsx,aoiConditions/train1P1Block14Test.xlsx,0,0,0,0,0,13,13,13,,,,,,,,,,,,,,,,,,,,,,,,,,,,,,,,,,,,,,,,,36.923255576752126,None,d,0.004269683267921209,36.923255576752126,None,,,,,,,,,,,,,,,,,,,,,,,,,,,,,,,,,,,,,,,,,,,,,,,,,,,,,,,,,,,,,,,,,instr,001,2020_Aug_20_1324,sonority,2020.1.3,47.988548377011696,
aoiConditions/train1P1LoopCondition.xlsx,two,,,0,0,0,0,,,,,,,,,,,,,,,,,,,,,,,,,,,,,,,,,,,,,,,,,,,,,,,,,,,,,,,,,,,,,,,,,,,,,,,,,,,,,,,,,,,,,,,,,,,,,,,,,,,,,,,,,,,,,,,,,,,instr,001,2020_Aug_20_1324,sonority,2020.1.3,47.988548377011696,
aoiConditions/train1P2LoopCondition.xlsx,four,aoiConditions/train1P2Block1.xlsx,aoiConditions/train1P2Block1Test.xlsx,0,1,1,1,0,0,0,0,,,,,,,,,,,,,,,,,,,,,,,,,,,,,,,,,,,37.04215689236298,None,d,0.09588852291926742,37.04215689236298,None,37.23070071451366,None,w,0.24110533017665148,37.23070071451366,None,,,,,,,,,,,,,,,,,,,,,,,,,,,,,,,,,,,,,,,,,,,,,,,,,,,,,,,,,,,,,,,,,instr,001,2020_Aug_20_1324,sonority,2020.1.3,47.988548377011696,
aoiConditions/train1P2LoopCondition.xlsx,four,aoiConditions/train1P2Block2.xlsx,aoiConditions/train1P2Block2Test.xlsx,0,1,1,1,0,1,1,1,,,,,,,,,,,,,,,,,,,,,,,,,,,,,,,,,,,,,,,,,37.56757789477706,None,d,0.14379559317603707,37.56757789477706,None,,,,,,,,,,,,,,,,,,,,,,,,,,,,,,,,,,,,,,,,,,,,,,,,,,,,,,,,,,,,,,,,,instr,001,2020_Aug_20_1324,sonority,2020.1.3,47.988548377011696,
aoiConditions/train1P2LoopCondition.xlsx,four,aoiConditions/train1P2Block3.xlsx,aoiConditions/train1P2Block3Test.xlsx,0,1,1,1,0,2,2,2,,,,,,,,,,,,,,,,,,,,,,,,,,,,,,,,,,,,,,,,,37.80535447271541,None,escape,0.44336024206131697,37.80535447271541,None,,,,,,,,,,,,,,,,,,,,,,,,,,,,,,,,,,,,,,,,,,,,,,,,,,,,,,,,,,,,,,,,,instr,001,2020_Aug_20_1324,sonority,2020.1.3,47.988548377011696,
aoiConditions/train1P2LoopCondition.xlsx,four,aoiConditions/train1P2Block4.xlsx,aoiConditions/train1P2Block4Test.xlsx,0,1,1,1,0,3,3,3,,,,,,,,,,,,,,,,,,,,,,,,,,,,,,,,,,,,,,,,,38.34107550093904,None,escape,0.08922762097790837,38.34107550093904,None,,,,,,,,,,,,,,,,,,,,,,,,,,,,,,,,,,,,,,,,,,,,,,,,,,,,,,,,,,,,,,,,,instr,001,2020_Aug_20_1324,sonority,2020.1.3,47.988548377011696,
aoiConditions/train1P2LoopCondition.xlsx,four,aoiConditions/train1P2Block5.xlsx,aoiConditions/train1P2Block5Test.xlsx,0,1,1,1,0,4,4,4,,,,,,,,,,,,,,,,,,,,,,,,,,,,,,,,,,,,,,,,,38.52446119207889,None,escape,0.07896912936121225,38.52446119207889,None,,,,,,,,,,,,,,,,,,,,,,,,,,,,,,,,,,,,,,,,,,,,,,,,,,,,,,,,,,,,,,,,,instr,001,2020_Aug_20_1324,sonority,2020.1.3,47.988548377011696,
aoiConditions/train1P2LoopCondition.xlsx,four,aoiConditions/train1P2Block6.xlsx,aoiConditions/train1P2Block6Test.xlsx,0,1,1,1,0,5,5,5,,,,,,,,,,,,,,,,,,,,,,,,,,,,,,,,,,,,,,,,,38.694348748773336,None,tab,0.2613100544549525,38.694348748773336,None,,,,,,,,,,,,,,,,,,,,,,,,,,,,,,,,,,,,,,,,,,,,,,,,,,,,,,,,,,,,,,,,,instr,001,2020_Aug_20_1324,sonority,2020.1.3,47.988548377011696,
aoiConditions/train1P2LoopCondition.xlsx,four,aoiConditions/train1P2Block7.xlsx,aoiConditions/train1P2Block7Test.xlsx,0,1,1,1,0,6,6,6,,,,,,,,,,,,,,,,,,,,,,,,,,,,,,,,,,,,,,,,,39.05365573707968,None,escape,0.06806686194613576,39.05365573707968,None,,,,,,,,,,,,,,,,,,,,,,,,,,,,,,,,,,,,,,,,,,,,,,,,,,,,,,,,,,,,,,,,,instr,001,2020_Aug_20_1324,sonority,2020.1.3,47.988548377011696,
aoiConditions/train1P2LoopCondition.xlsx,four,,,0,1,1,1,,,,,,,,,,,,,,,,,,,,,,,,,,,,,,,,,,,,,,,,,,,,,,,,,,,,,,,,,,,,,,,,,,,,,,,,,,,,,,,,,,,,,,,,,,,,,,,,,,,,,,,,,,,,,,,,,,,instr,001,2020_Aug_20_1324,sonority,2020.1.3,47.988548377011696,
,,,,,,,,,,,,,,,,,,,,,,,,,,,,,,,,,,,,,,,,,,,,,,,,,,,,,,,,,,39.18182061892003,None,None,None,None,None,lshift,0.7401417437940836,39.18182061892003,None,,,,,,,,,,,,,,,,,,,,,,,,,,,,,,,,,,,,,,,,,,,,,,,,,,,,,,,instr,001,2020_Aug_20_1324,sonority,2020.1.3,47.988548377011696,
aoiConditions/train2P1LoopCondition.xlsx,two,aoiConditions/train2P1Block1.xlsx,aoiConditions/train2P1Block1Test.xlsx,,,,,,,,,,,,,,,,,0,0,0,0,0,0,0,0,,,,,,,,,,,,,,,,,,,,,,,,,,,,,,,,,,,,,,,,,40.030916690360755,None,escape,0.19368987018242478,40.030916690360755,None,40.317337753716856,None,escape,0.08735293243080378,40.317337753716856,None,,,,,,,,,,,,,,,,,,,,,,,,,,,,,,,,,,,,,,,,,,,instr,001,2020_Aug_20_1324,sonority,2020.1.3,47.988548377011696,
aoiConditions/train2P1LoopCondition.xlsx,two,aoiConditions/train2P1Block2.xlsx,aoiConditions/train2P1Block2Test.xlsx,,,,,,,,,,,,,,,,,0,0,0,0,0,1,1,1,,,,,,,,,,,,,,,,,,,,,,,,,,,,,,,,,,,,,,,,,,,,,,,40.48594153532758,None,escape,0.10035492619499564,40.48594153532758,None,,,,,,,,,,,,,,,,,,,,,,,,,,,,,,,,,,,,,,,,,,,instr,001,2020_Aug_20_1324,sonority,2020.1.3,47.988548377011696,
aoiConditions/train2P1LoopCondition.xlsx,two,aoiConditions/train2P1Block3.xlsx,aoiConditions/train2P1Block3Test.xlsx,,,,,,,,,,,,,,,,,0,0,0,0,0,2,2,2,,,,,,,,,,,,,,,,,,,,,,,,,,,,,,,,,,,,,,,,,,,,,,,40.6692230142653,None,escape,0.10640112683176994,40.6692230142653,None,,,,,,,,,,,,,,,,,,,,,,,,,,,,,,,,,,,,,,,,,,,instr,001,2020_Aug_20_1324,sonority,2020.1.3,47.988548377011696,
aoiConditions/train2P1LoopCondition.xlsx,two,aoiConditions/train2P1Block4.xlsx,aoiConditions/train2P1Block4Test.xlsx,,,,,,,,,,,,,,,,,0,0,0,0,0,3,3,3,,,,,,,,,,,,,,,,,,,,,,,,,,,,,,,,,,,,,,,,,,,,,,,40.87118530133739,None,escape,0.09465798735618591,40.87118530133739,None,,,,,,,,,,,,,,,,,,,,,,,,,,,,,,,,,,,,,,,,,,,instr,001,2020_Aug_20_1324,sonority,2020.1.3,47.988548377011696,
aoiConditions/train2P1LoopCondition.xlsx,two,aoiConditions/train2P1Block5.xlsx,aoiConditions/train2P1Block5Test.xlsx,,,,,,,,,,,,,,,,,0,0,0,0,0,4,4,4,,,,,,,,,,,,,,,,,,,,,,,,,,,,,,,,,,,,,,,,,,,,,,,41.052299089264125,None,escape,0.11844179965555668,41.052299089264125,None,,,,,,,,,,,,,,,,,,,,,,,,,,,,,,,,,,,,,,,,,,,instr,001,2020_Aug_20_1324,sonority,2020.1.3,47.988548377011696,
aoiConditions/train2P1LoopCondition.xlsx,two,aoiConditions/train2P1Block6.xlsx,aoiConditions/train2P1Block6Test.xlsx,,,,,,,,,,,,,,,,,0,0,0,0,0,5,5,5,,,,,,,,,,,,,,,,,,,,,,,,,,,,,,,,,,,,,,,,,,,,,,,41.256230460014194,None,escape,0.09931959956884384,41.256230460014194,None,,,,,,,,,,,,,,,,,,,,,,,,,,,,,,,,,,,,,,,,,,,instr,001,2020_Aug_20_1324,sonority,2020.1.3,47.988548377011696,
aoiConditions/train2P1LoopCondition.xlsx,two,aoiConditions/train2P1Block7.xlsx,aoiConditions/train2P1Block7Test.xlsx,,,,,,,,,,,,,,,,,0,0,0,0,0,6,6,6,,,,,,,,,,,,,,,,,,,,,,,,,,,,,,,,,,,,,,,,,,,,,,,41.44850213686004,None,w,0.16929853055626154,41.44850213686004,None,,,,,,,,,,,,,,,,,,,,,,,,,,,,,,,,,,,,,,,,,,,instr,001,2020_Aug_20_1324,sonority,2020.1.3,47.988548377011696,
aoiConditions/train2P1LoopCondition.xlsx,two,aoiConditions/train2P1Block8.xlsx,aoiConditions/train2P1Block8Test.xlsx,,,,,,,,,,,,,,,,,0,0,0,0,0,7,7,7,,,,,,,,,,,,,,,,,,,,,,,,,,,,,,,,,,,,,,,,,,,,,,,41.712563244625926,None,1,0.08163560414686799,41.712563244625926,None,,,,,,,,,,,,,,,,,,,,,,,,,,,,,,,,,,,,,,,,,,,instr,001,2020_Aug_20_1324,sonority,2020.1.3,47.988548377011696,
aoiConditions/train2P1LoopCondition.xlsx,two,aoiConditions/train2P1Block9.xlsx,aoiConditions/train2P1Block9Test.xlsx,,,,,,,,,,,,,,,,,0,0,0,0,0,8,8,8,,,,,,,,,,,,,,,,,,,,,,,,,,,,,,,,,,,,,,,,,,,,,,,41.88951722532511,None,a,0.12699362635612488,41.88951722532511,None,,,,,,,,,,,,,,,,,,,,,,,,,,,,,,,,,,,,,,,,,,,instr,001,2020_Aug_20_1324,sonority,2020.1.3,47.988548377011696,
aoiConditions/train2P1LoopCondition.xlsx,two,aoiConditions/train2P1Block10.xlsx,aoiConditions/train2P1Block10Test.xlsx,,,,,,,,,,,,,,,,,0,0,0,0,0,9,9,9,,,,,,,,,,,,,,,,,,,,,,,,,,,,,,,,,,,,,,,,,,,,,,,42.12588467169553,None,a,0.07040031114593148,42.12588467169553,None,,,,,,,,,,,,,,,,,,,,,,,,,,,,,,,,,,,,,,,,,,,instr,001,2020_Aug_20_1324,sonority,2020.1.3,47.988548377011696,
aoiConditions/train2P1LoopCondition.xlsx,two,aoiConditions/train2P1Block11.xlsx,aoiConditions/train2P1Block11Test.xlsx,,,,,,,,,,,,,,,,,0,0,0,0,0,10,10,10,,,,,,,,,,,,,,,,,,,,,,,,,,,,,,,,,,,,,,,,,,,,,,,42.27973410766572,None,d,0.13853476010262966,42.27973410766572,None,,,,,,,,,,,,,,,,,,,,,,,,,,,,,,,,,,,,,,,,,,,instr,001,2020_Aug_20_1324,sonority,2020.1.3,47.988548377011696,
aoiConditions/train2P1LoopCondition.xlsx,two,aoiConditions/train2P1Block12.xlsx,aoiConditions/train2P1Block12Test.xlsx,,,,,,,,,,,,,,,,,0,0,0,0,0,11,11,11,,,,,,,,,,,,,,,,,,,,,,,,,,,,,,,,,,,,,,,,,,,,,,,42.50660879584029,None,f,0.005249127745628357,42.50660879584029,None,,,,,,,,,,,,,,,,,,,,,,,,,,,,,,,,,,,,,,,,,,,instr,001,2020_Aug_20_1324,sonority,2020.1.3,47.988548377011696,
aoiConditions/train2P1LoopCondition.xlsx,two,aoiConditions/train2P1Block13.xlsx,aoiConditions/train2P1Block13Test.xlsx,,,,,,,,,,,,,,,,,0,0,0,0,0,12,12,12,,,,,,,,,,,,,,,,,,,,,,,,,,,,,,,,,,,,,,,,,,,,,,,42.59826652659103,None,s,0.0383614506572485,42.59826652659103,None,,,,,,,,,,,,,,,,,,,,,,,,,,,,,,,,,,,,,,,,,,,instr,001,2020_Aug_20_1324,sonority,2020.1.3,47.988548377011696,
aoiConditions/train2P1LoopCondition.xlsx,two,aoiConditions/train2P1Block14.xlsx,aoiConditions/train2P1Block14Test.xlsx,,,,,,,,,,,,,,,,,0,0,0,0,0,13,13,13,,,,,,,,,,,,,,,,,,,,,,,,,,,,,,,,,,,,,,,,,,,,,,,42.73493603756651,None,j,0.02350931102409959,42.73493603756651,None,,,,,,,,,,,,,,,,,,,,,,,,,,,,,,,,,,,,,,,,,,,instr,001,2020_Aug_20_1324,sonority,2020.1.3,47.988548377011696,
aoiConditions/train2P1LoopCondition.xlsx,two,,,,,,,,,,,,,,,,,,,0,0,0,0,,,,,,,,,,,,,,,,,,,,,,,,,,,,,,,,,,,,,,,,,,,,,,,,,,,,,,,,,,,,,,,,,,,,,,,,,,,,,,,,,,,,,,,,,,,,,,,,,,,instr,001,2020_Aug_20_1324,sonority,2020.1.3,47.988548377011696,
aoiConditions/train2P2LoopCondition.xlsx,four,aoiConditions/train2P2Block1.xlsx,aoiConditions/train2P2Block1Test.xlsx,,,,,,,,,,,,,,,,,0,1,1,1,0,0,0,0,,,,,,,,,,,,,,,,,,,,,,,,,,,,,,,,,,,,,,,,,42.87912280438468,None,f,0.06325006391853094,42.87912280438468,None,43.025706831365824,None,d,0.01752918679267168,43.025706831365824,None,,,,,,,,,,,,,,,,,,,,,,,,,,,,,,,,,,,,,,,,,,,instr,001,2020_Aug_20_1324,sonority,2020.1.3,47.988548377011696,
aoiConditions/train2P2LoopCondition.xlsx,four,aoiConditions/train2P2Block2.xlsx,aoiConditions/train2P2Block2Test.xlsx,,,,,,,,,,,,,,,,,0,1,1,1,0,1,1,1,,,,,,,,,,,,,,,,,,,,,,,,,,,,,,,,,,,,,,,,,,,,,,,43.136364803183824,None,j,0.012304979842156172,43.136364803183824,None,,,,,,,,,,,,,,,,,,,,,,,,,,,,,,,,,,,,,,,,,,,instr,001,2020_Aug_20_1324,sonority,2020.1.3,47.988548377011696,
aoiConditions/train2P2LoopCondition.xlsx,four,aoiConditions/train2P2Block3.xlsx,aoiConditions/train2P2Block3Test.xlsx,,,,,,,,,,,,,,,,,0,1,1,1,0,2,2,2,,,,,,,,,,,,,,,,,,,,,,,,,,,,,,,,,,,,,,,,,,,,,,,43.24217237299308,None,j,0.06031550653278828,43.24217237299308,None,,,,,,,,,,,,,,,,,,,,,,,,,,,,,,,,,,,,,,,,,,,instr,001,2020_Aug_20_1324,sonority,2020.1.3,47.988548377011696,
aoiConditions/train2P2LoopCondition.xlsx,four,aoiConditions/train2P2Block4.xlsx,aoiConditions/train2P2Block4Test.xlsx,,,,,,,,,,,,,,,,,0,1,1,1,0,3,3,3,,,,,,,,,,,,,,,,,,,,,,,,,,,,,,,,,,,,,,,,,,,,,,,43.408844829536974,None,j,0.04681057529523969,43.408844829536974,None,,,,,,,,,,,,,,,,,,,,,,,,,,,,,,,,,,,,,,,,,,,instr,001,2020_Aug_20_1324,sonority,2020.1.3,47.988548377011696,
aoiConditions/train2P2LoopCondition.xlsx,four,aoiConditions/train2P2Block5.xlsx,aoiConditions/train2P2Block5Test.xlsx,,,,,,,,,,,,,,,,,0,1,1,1,0,4,4,4,,,,,,,,,,,,,,,,,,,,,,,,,,,,,,,,,,,,,,,,,,,,,,,43.5540461554192,None,j,0.07000498380511999,43.5540461554192,None,,,,,,,,,,,,,,,,,,,,,,,,,,,,,,,,,,,,,,,,,,,instr,001,2020_Aug_20_1324,sonority,2020.1.3,47.988548377011696,
aoiConditions/train2P2LoopCondition.xlsx,four,aoiConditions/train2P2Block6.xlsx,aoiConditions/train2P2Block6Test.xlsx,,,,,,,,,,,,,,,,,0,1,1,1,0,5,5,5,,,,,,,,,,,,,,,,,,,,,,,,,,,,,,,,,,,,,,,,,,,,,,,43.71989699592814,None,k,0.056290118023753166,43.71989699592814,None,,,,,,,,,,,,,,,,,,,,,,,,,,,,,,,,,,,,,,,,,,,instr,001,2020_Aug_20_1324,sonority,2020.1.3,47.988548377011696,
aoiConditions/train2P2LoopCondition.xlsx,four,aoiConditions/train2P2Block7.xlsx,aoiConditions/train2P2Block7Test.xlsx,,,,,,,,,,,,,,,,,0,1,1,1,0,6,6,6,,,,,,,,,,,,,,,,,,,,,,,,,,,,,,,,,,,,,,,,,,,,,,,43.88105979375541,None,j,0.04711566073819995,43.88105979375541,None,,,,,,,,,,,,,,,,,,,,,,,,,,,,,,,,,,,,,,,,,,,instr,001,2020_Aug_20_1324,sonority,2020.1.3,47.988548377011696,
aoiConditions/train2P2LoopCondition.xlsx,four,,,,,,,,,,,,,,,,,,,0,1,1,1,,,,,,,,,,,,,,,,,,,,,,,,,,,,,,,,,,,,,,,,,,,,,,,,,,,,,,,,,,,,,,,,,,,,,,,,,,,,,,,,,,,,,,,,,,,,,,,,,,,instr,001,2020_Aug_20_1324,sonority,2020.1.3,47.988548377011696,
,,,,,,,,,,,,,,,,,,,,,,,,,,,,,,,,,,,,,,,,,,,,,,,,,,,,,,,,,,,,,,,,,,,,,,,,,,,,,,,,j,0.08975661126896739,43.99453451856971,None,,,,,,,,,,,,,,,,,,,,,,,,,,,,,,,,,,,,,,,instr,001,2020_Aug_20_1324,sonority,2020.1.3,47.988548377011696,
,,,,,,,,,,,,,,,,,,,,,,,,,,,,,,,,,,,,,,,,,,,,,,,,,,,,,,,,,,,,,,,,,,,,,,,,,,,,,,,,,,,,43.99453451856971,None,None,None,None,None,44.11182809481397,None,k,0.10725634731352329,44.11182809481397,None,,,,,,,,,,,,,,,,,,,,,,,,,,,instr,001,2020_Aug_20_1324,sonority,2020.1.3,47.988548377011696,
,,,,,,,,,,,,,,,,,,,,,,,,,,,,,,,,,,,,,,,,,,,,,,,,,,,,,,,,,,,,,,,,,,,,,,,,,,,,,,,,,,,,,,,,,,,,,,,,j,0.07572910888120532,44.31725695123896,None,,,,,,,,,,,,,,,,,,,,,,,instr,001,2020_Aug_20_1324,sonority,2020.1.3,47.988548377011696,
,,,,,,,,,,,,,,,,,,,,,,,,,,,,,,,,,,,,,,,,,,,,,,,,,,,,,,,,,,,,,,,,,,,,,,,,,,,,,,,,,,,,,,,,,,,,,,,,,,,,44.31725695123896,None,None,None,None,None,44.42405642569065,None,k,0.1151239974424243,44.42405642569065,None,,,,,,,,,,,instr,001,2020_Aug_20_1324,sonority,2020.1.3,47.988548377011696,
,,,,,,,,,,,,,,,,,,,,,,,,,,,,,,,,,,,,,,,,,,,,,,,,,,,,,,,,,,,,,,,,,,,,,,,,,,,,,,,,,,,,,,,,,,,,,,,,,,,,,,,,,,,,,,,,k,0.050755161326378584,44.63658115733415,None,,,,,,,instr,001,2020_Aug_20_1324,sonority,2020.1.3,47.988548377011696,
,,,,,,,,,,,,,,,,,,,,,,,,,,,,,,,,,,,,,,,,,,,,,,,,,,,,,,,,,,,,,,,,,,,,,,,,,,,,,,,,,,,,,,,,,,,,,,,,,,,,,,,,,,,,,,,,,,,,44.63658115733415,None,None,None,None,None,,,,,,,
