skipTrain1Type.keys,train1Words.thisRepN,train1Words.thisTrialN,train1Words.thisN,train1Words.thisIndex,train1Words.ran,audio,imageLoc,participant,ID Number,date,expName,psychopyVersion,OS,frameRate,train1QuestAdvance.keys,break_loop.thisRepN,break_loop.thisTrialN,break_loop.thisN,break_loop.thisIndex,break_loop.ran,train1Response.keys,train1Response.rt,train1Questions.thisRepN,train1Questions.thisTrialN,train1Questions.thisN,train1Questions.thisIndex,train1Questions.ran,audioTrue,imageTrue,currentPhase,imageFalse,truePos,falsePos,trial1phases.thisRepN,trial1phases.thisTrialN,trial1phases.thisN,trial1phases.thisIndex,trial1phases.ran,condFiles,testFiles,alltrain1.thisRepN,alltrain1.thisTrialN,alltrain1.thisN,alltrain1.thisIndex,alltrain1.ran,condFile,numWords,train1QuestAdvance.rt,skipTest1Instr.keys,skipTest1Instr.rt,key_resp.keys,key_resp.rt,test1Response.keys,test1Response.rt,test1Loop.thisRepN,test1Loop.thisTrialN,test1Loop.thisN,test1Loop.thisIndex,test1Loop.ran,firstAudio,secondAudio,whichAudio,feedback,skipTest2Instr.keys,key_resp_2.keys,test2Response.keys,test2Response.rt,test2Loop.thisRepN,test2Loop.thisTrialN,test2Loop.thisN,test2Loop.thisIndex,test2Loop.ran,skipTest3Instr.keys,test3Response.keys,test3Response.rt,test3Loop.thisRepN,test3Loop.thisTrialN,test3Loop.thisN,test3Loop.thisIndex,test3Loop.ran,skipPostTestInstr.keys,skipPostTestInstr.rt,postTestResponse.keys,postTestResponse.rt,postTestLoop.thisRepN,postTestLoop.thisTrialN,postTestLoop.thisN,postTestLoop.thisIndex,postTestLoop.ran,audioA,audioX,audioB,correctLabel,quit.keys,quit.rt
,0,0,0,0,1,trainingaudio/06_titoka1.wav,pngimages/06_tent.png,Jacob Sellers,2013,2021-03-03_10h53.54.611,experiment,2020.1.3,MacIntel,60,,,,,,,,,,,,,,,,,,,,,,,,,,,,,,,,,,,,,,,,,,,,,,,,,,,,,,,,,,,,,,,,,,,,,,,,,,,,,,,,,
,,,,,,,,Jacob Sellers,2013,2021-03-03_10h53.54.611,experiment,2020.1.3,MacIntel,60,,0,0,0,0,1,,,,,,,,,,,,,,,,,,,,,,,,,,,,,,,,,,,,,,,,,,,,,,,,,,,,,,,,,,,,,,,,,,,,,,,,,,,
,,,,,,,,Jacob Sellers,2013,2021-03-03_10h53.54.611,experiment,2020.1.3,MacIntel,60,,,,,,,f,1.099735,0,0,0,0,1,trainingaudio/19_papipi2.wav,pngimages/19_burger.png,train1P1,pngimages/06_tent.png,-0.5,0.5,,,,,,,,,,,,,,,,,,,,,,,,,,,,,,,,,,,,,,,,,,,,,,,,,,,,,,,,,,,,,,
,,,,,,,,Jacob Sellers,2013,2021-03-03_10h53.54.611,experiment,2020.1.3,MacIntel,60,,,,,,,,,,,,,,,,,,,,0,0,0,0,1,ioaConditions/train1P1Block1.xlsx,ioaConditions/train1P1Block1Test.xlsx,,,,,,,,,,,,,,,,,,,,,,,,,,,,,,,,,,,,,,,,,,,,,,,,,,,,,,,
,0,0,0,0,1,trainingaudio/23_patoko2.wav,pngimages/23_lemon.png,Jacob Sellers,2013,2021-03-03_10h53.54.611,experiment,2020.1.3,MacIntel,60,,,,,,,,,,,,,,,,,,,,,,,,,,,,,,,,,,,,,,,,,,,,,,,,,,,,,,,,,,,,,,,,,,,,,,,,,,,,,,,,,
,,,,,,,,Jacob Sellers,2013,2021-03-03_10h53.54.611,experiment,2020.1.3,MacIntel,60,,0,0,0,0,1,,,,,,,,,,,,,,,,,,,,,,,,,,,,,,,,,,,,,,,,,,,,,,,,,,,,,,,,,,,,,,,,,,,,,,,,,,,
,,,,,,,,Jacob Sellers,2013,2021-03-03_10h53.54.611,experiment,2020.1.3,MacIntel,60,,,,,,,f,0.3177,0,0,0,0,1,trainingaudio/23_patoko2.wav,pngimages/23_lemon.png,train1P1,pngimages/22_egg.png,0.5,-0.5,,,,,,,,,,,,,,,,,,,,,,,,,,,,,,,,,,,,,,,,,,,,,,,,,,,,,,,,,,,,,,
,,,,,,,,Jacob Sellers,2013,2021-03-03_10h53.54.611,experiment,2020.1.3,MacIntel,60,,,,,,,,,,,,,,,,,,,,0,1,1,1,1,ioaConditions/train1P1Block2.xlsx,ioaConditions/train1P1Block2Test.xlsx,,,,,,,,,,,,,,,,,,,,,,,,,,,,,,,,,,,,,,,,,,,,,,,,,,,,,,,
,0,0,0,0,1,trainingaudio/25_tapapi3.wav,pngimages/25_apple.png,Jacob Sellers,2013,2021-03-03_10h53.54.611,experiment,2020.1.3,MacIntel,60,,,,,,,,,,,,,,,,,,,,,,,,,,,,,,,,,,,,,,,,,,,,,,,,,,,,,,,,,,,,,,,,,,,,,,,,,,,,,,,,,
,,,,,,,,Jacob Sellers,2013,2021-03-03_10h53.54.611,experiment,2020.1.3,MacIntel,60,,0,0,0,0,1,,,,,,,,,,,,,,,,,,,,,,,,,,,,,,,,,,,,,,,,,,,,,,,,,,,,,,,,,,,,,,,,,,,,,,,,,,,
,,,,,,,,Jacob Sellers,2013,2021-03-03_10h53.54.611,experiment,2020.1.3,MacIntel,60,,,,,,,j,0.05412,0,0,0,0,1,trainingaudio/26_kapako3.wav,pngimages/26_pineapple.png,train1P1,pngimages/25_apple.png,0.5,-0.5,,,,,,,,,,,,,,,,,,,,,,,,,,,,,,,,,,,,,,,,,,,,,,,,,,,,,,,,,,,,,,
,,,,,,,,Jacob Sellers,2013,2021-03-03_10h53.54.611,experiment,2020.1.3,MacIntel,60,,,,,,,,,,,,,,,,,,,,0,2,2,2,1,ioaConditions/train1P1Block3.xlsx,ioaConditions/train1P1Block3Test.xlsx,,,,,,,,,,,,,,,,,,,,,,,,,,,,,,,,,,,,,,,,,,,,,,,,,,,,,,,
,0,0,0,0,1,trainingaudio/17_kotako1.wav,pngimages/17_cracker.png,Jacob Sellers,2013,2021-03-03_10h53.54.611,experiment,2020.1.3,MacIntel,60,,,,,,,,,,,,,,,,,,,,,,,,,,,,,,,,,,,,,,,,,,,,,,,,,,,,,,,,,,,,,,,,,,,,,,,,,,,,,,,,,
,,,,,,,,Jacob Sellers,2013,2021-03-03_10h53.54.611,experiment,2020.1.3,MacIntel,60,,0,0,0,0,1,,,,,,,,,,,,,,,,,,,,,,,,,,,,,,,,,,,,,,,,,,,,,,,,,,,,,,,,,,,,,,,,,,,,,,,,,,,
,,,,,,,,Jacob Sellers,2013,2021-03-03_10h53.54.611,experiment,2020.1.3,MacIntel,60,,,,,,,j,0.25599,0,0,0,0,1,trainingaudio/18_popata1.wav,pngimages/18_donut.png,train1P1,pngimages/17_cracker.png,0.5,-0.5,,,,,,,,,,,,,,,,,,,,,,,,,,,,,,,,,,,,,,,,,,,,,,,,,,,,,,,,,,,,,,
,,,,,,,,Jacob Sellers,2013,2021-03-03_10h53.54.611,experiment,2020.1.3,MacIntel,60,,,,,,,,,,,,,,,,,,,,0,3,3,3,1,ioaConditions/train1P1Block4.xlsx,ioaConditions/train1P1Block4Test.xlsx,,,,,,,,,,,,,,,,,,,,,,,,,,,,,,,,,,,,,,,,,,,,,,,,,,,,,,,
,0,0,0,0,1,trainingaudio/09_tipata1.wav,pngimages/09_plane.png,Jacob Sellers,2013,2021-03-03_10h53.54.611,experiment,2020.1.3,MacIntel,60,,,,,,,,,,,,,,,,,,,,,,,,,,,,,,,,,,,,,,,,,,,,,,,,,,,,,,,,,,,,,,,,,,,,,,,,,,,,,,,,,
,,,,,,,,Jacob Sellers,2013,2021-03-03_10h53.54.611,experiment,2020.1.3,MacIntel,60,,0,0,0,0,1,,,,,,,,,,,,,,,,,,,,,,,,,,,,,,,,,,,,,,,,,,,,,,,,,,,,,,,,,,,,,,,,,,,,,,,,,,,
,,,,,,,,Jacob Sellers,2013,2021-03-03_10h53.54.611,experiment,2020.1.3,MacIntel,60,,,,,,,j,0.271485,0,0,0,0,1,trainingaudio/24_takopa2.wav,pngimages/24_banana.png,train1P1,pngimages/09_plane.png,0.5,-0.5,,,,,,,,,,,,,,,,,,,,,,,,,,,,,,,,,,,,,,,,,,,,,,,,,,,,,,,,,,,,,,
,,,,,,,,Jacob Sellers,2013,2021-03-03_10h53.54.611,experiment,2020.1.3,MacIntel,60,,,,,,,,,,,,,,,,,,,,0,4,4,4,1,ioaConditions/train1P1Block5.xlsx,ioaConditions/train1P1Block5Test.xlsx,,,,,,,,,,,,,,,,,,,,,,,,,,,,,,,,,,,,,,,,,,,,,,,,,,,,,,,
,0,0,0,0,1,trainingaudio/08_tipako1.wav,pngimages/08_bell.png,Jacob Sellers,2013,2021-03-03_10h53.54.611,experiment,2020.1.3,MacIntel,60,,,,,,,,,,,,,,,,,,,,,,,,,,,,,,,,,,,,,,,,,,,,,,,,,,,,,,,,,,,,,,,,,,,,,,,,,,,,,,,,,
,,,,,,,,Jacob Sellers,2013,2021-03-03_10h53.54.611,experiment,2020.1.3,MacIntel,60,,0,0,0,0,1,,,,,,,,,,,,,,,,,,,,,,,,,,,,,,,,,,,,,,,,,,,,,,,,,,,,,,,,,,,,,,,,,,,,,,,,,,,
,,,,,,,,Jacob Sellers,2013,2021-03-03_10h53.54.611,experiment,2020.1.3,MacIntel,60,,,,,,,f,0.499915,0,0,0,0,1,trainingaudio/08_tipako1.wav,pngimages/08_bell.png,train1P1,pngimages/03_box.png,-0.5,0.5,,,,,,,,,,,,,,,,,,,,,,,,,,,,,,,,,,,,,,,,,,,,,,,,,,,,,,,,,,,,,,
,,,,,,,,Jacob Sellers,2013,2021-03-03_10h53.54.611,experiment,2020.1.3,MacIntel,60,,,,,,,,,,,,,,,,,,,,0,5,5,5,1,ioaConditions/train1P1Block6.xlsx,ioaConditions/train1P1Block6Test.xlsx,,,,,,,,,,,,,,,,,,,,,,,,,,,,,,,,,,,,,,,,,,,,,,,,,,,,,,,
,0,0,0,0,1,trainingaudio/10_tokiti2.wav,pngimages/10_backpack.png,Jacob Sellers,2013,2021-03-03_10h53.54.611,experiment,2020.1.3,MacIntel,60,,,,,,,,,,,,,,,,,,,,,,,,,,,,,,,,,,,,,,,,,,,,,,,,,,,,,,,,,,,,,,,,,,,,,,,,,,,,,,,,,
,,,,,,,,Jacob Sellers,2013,2021-03-03_10h53.54.611,experiment,2020.1.3,MacIntel,60,,0,0,0,0,1,,,,,,,,,,,,,,,,,,,,,,,,,,,,,,,,,,,,,,,,,,,,,,,,,,,,,,,,,,,,,,,,,,,,,,,,,,,
,,,,,,,,Jacob Sellers,2013,2021-03-03_10h53.54.611,experiment,2020.1.3,MacIntel,60,,,,,,,j,0.23585,0,0,0,0,1,trainingaudio/13_kopopi3.wav,pngimages/13_toast.png,train1P1,pngimages/10_backpack.png,0.5,-0.5,,,,,,,,,,,,,,,,,,,,,,,,,,,,,,,,,,,,,,,,,,,,,,,,,,,,,,,,,,,,,,
,,,,,,,,Jacob Sellers,2013,2021-03-03_10h53.54.611,experiment,2020.1.3,MacIntel,60,,,,,,,,,,,,,,,,,,,,0,6,6,6,1,ioaConditions/train1P1Block7.xlsx,ioaConditions/train1P1Block7Test.xlsx,,,,,,,,,,,,,,,,,,,,,,,,,,,,,,,,,,,,,,,,,,,,,,,,,,,,,,,
,0,0,0,0,1,trainingaudio/04_kitoti1.wav,pngimages/04_ladder.png,Jacob Sellers,2013,2021-03-03_10h53.54.611,experiment,2020.1.3,MacIntel,60,,,,,,,,,,,,,,,,,,,,,,,,,,,,,,,,,,,,,,,,,,,,,,,,,,,,,,,,,,,,,,,,,,,,,,,,,,,,,,,,,
,,,,,,,,Jacob Sellers,2013,2021-03-03_10h53.54.611,experiment,2020.1.3,MacIntel,60,,0,0,0,0,1,,,,,,,,,,,,,,,,,,,,,,,,,,,,,,,,,,,,,,,,,,,,,,,,,,,,,,,,,,,,,,,,,,,,,,,,,,,
,,,,,,,,Jacob Sellers,2013,2021-03-03_10h53.54.611,experiment,2020.1.3,MacIntel,60,,,,,,,f,0.802955,0,0,0,0,1,trainingaudio/12_pokika2.wav,pngimages/12_pie.png,train1P1,pngimages/04_ladder.png,-0.5,0.5,,,,,,,,,,,,,,,,,,,,,,,,,,,,,,,,,,,,,,,,,,,,,,,,,,,,,,,,,,,,,,
,,,,,,,,Jacob Sellers,2013,2021-03-03_10h53.54.611,experiment,2020.1.3,MacIntel,60,,,,,,,,,,,,,,,,,,,,0,7,7,7,1,ioaConditions/train1P1Block8.xlsx,ioaConditions/train1P1Block8Test.xlsx,,,,,,,,,,,,,,,,,,,,,,,,,,,,,,,,,,,,,,,,,,,,,,,,,,,,,,,
,0,0,0,0,1,trainingaudio/07_pitapi1.wav,pngimages/07_suitcase.png,Jacob Sellers,2013,2021-03-03_10h53.54.611,experiment,2020.1.3,MacIntel,60,,,,,,,,,,,,,,,,,,,,,,,,,,,,,,,,,,,,,,,,,,,,,,,,,,,,,,,,,,,,,,,,,,,,,,,,,,,,,,,,,
,,,,,,,,Jacob Sellers,2013,2021-03-03_10h53.54.611,experiment,2020.1.3,MacIntel,60,,0,0,0,0,1,,,,,,,,,,,,,,,,,,,,,,,,,,,,,,,,,,,,,,,,,,,,,,,,,,,,,,,,,,,,,,,,,,,,,,,,,,,
,,,,,,,,Jacob Sellers,2013,2021-03-03_10h53.54.611,experiment,2020.1.3,MacIntel,60,,,,,,,f,0.241645,0,0,0,0,1,trainingaudio/02_pitito1.wav,pngimages/02_pallet.png,train1P1,pngimages/07_suitcase.png,-0.5,0.5,,,,,,,,,,,,,,,,,,,,,,,,,,,,,,,,,,,,,,,,,,,,,,,,,,,,,,,,,,,,,,
,,,,,,,,Jacob Sellers,2013,2021-03-03_10h53.54.611,experiment,2020.1.3,MacIntel,60,,,,,,,,,,,,,,,,,,,,0,8,8,8,1,ioaConditions/train1P1Block9.xlsx,ioaConditions/train1P1Block9Test.xlsx,,,,,,,,,,,,,,,,,,,,,,,,,,,,,,,,,,,,,,,,,,,,,,,,,,,,,,,
,0,0,0,0,1,trainingaudio/01_kitipi1.wav,pngimages/01_gift.png,Jacob Sellers,2013,2021-03-03_10h53.54.611,experiment,2020.1.3,MacIntel,60,,,,,,,,,,,,,,,,,,,,,,,,,,,,,,,,,,,,,,,,,,,,,,,,,,,,,,,,,,,,,,,,,,,,,,,,,,,,,,,,,
,,,,,,,,Jacob Sellers,2013,2021-03-03_10h53.54.611,experiment,2020.1.3,MacIntel,60,,0,0,0,0,1,,,,,,,,,,,,,,,,,,,,,,,,,,,,,,,,,,,,,,,,,,,,,,,,,,,,,,,,,,,,,,,,,,,,,,,,,,,
,,,,,,,,Jacob Sellers,2013,2021-03-03_10h53.54.611,experiment,2020.1.3,MacIntel,60,,,,,,,f,0.358335,0,0,0,0,1,trainingaudio/01_kitipi1.wav,pngimages/01_gift.png,train1P1,pngimages/21_cheese.png,-0.5,0.5,,,,,,,,,,,,,,,,,,,,,,,,,,,,,,,,,,,,,,,,,,,,,,,,,,,,,,,,,,,,,,
,,,,,,,,Jacob Sellers,2013,2021-03-03_10h53.54.611,experiment,2020.1.3,MacIntel,60,,,,,,,,,,,,,,,,,,,,0,9,9,9,1,ioaConditions/train1P1Block10.xlsx,ioaConditions/train1P1Block10Test.xlsx,,,,,,,,,,,,,,,,,,,,,,,,,,,,,,,,,,,,,,,,,,,,,,,,,,,,,,,
,0,0,0,0,1,trainingaudio/27_pakapa1.wav,pngimages/27_kiwi.png,Jacob Sellers,2013,2021-03-03_10h53.54.611,experiment,2020.1.3,MacIntel,60,,,,,,,,,,,,,,,,,,,,,,,,,,,,,,,,,,,,,,,,,,,,,,,,,,,,,,,,,,,,,,,,,,,,,,,,,,,,,,,,,
,,,,,,,,Jacob Sellers,2013,2021-03-03_10h53.54.611,experiment,2020.1.3,MacIntel,60,,0,0,0,0,1,,,,,,,,,,,,,,,,,,,,,,,,,,,,,,,,,,,,,,,,,,,,,,,,,,,,,,,,,,,,,,,,,,,,,,,,,,,
,,,,,,,,Jacob Sellers,2013,2021-03-03_10h53.54.611,experiment,2020.1.3,MacIntel,60,,,,,,,j,0.652555,0,0,0,0,1,trainingaudio/27_pakapa1.wav,pngimages/27_kiwi.png,train1P1,pngimages/15_barrel.png,0.5,-0.5,,,,,,,,,,,,,,,,,,,,,,,,,,,,,,,,,,,,,,,,,,,,,,,,,,,,,,,,,,,,,,
,,,,,,,,Jacob Sellers,2013,2021-03-03_10h53.54.611,experiment,2020.1.3,MacIntel,60,,,,,,,,,,,,,,,,,,,,0,10,10,10,1,ioaConditions/train1P1Block11.xlsx,ioaConditions/train1P1Block11Test.xlsx,,,,,,,,,,,,,,,,,,,,,,,,,,,,,,,,,,,,,,,,,,,,,,,,,,,,,,,
,0,0,0,0,1,trainingaudio/05_titopo1.wav,pngimages/05_megaphone.png,Jacob Sellers,2013,2021-03-03_10h53.54.611,experiment,2020.1.3,MacIntel,60,,,,,,,,,,,,,,,,,,,,,,,,,,,,,,,,,,,,,,,,,,,,,,,,,,,,,,,,,,,,,,,,,,,,,,,,,,,,,,,,,
,,,,,,,,Jacob Sellers,2013,2021-03-03_10h53.54.611,experiment,2020.1.3,MacIntel,60,,0,0,0,0,1,,,,,,,,,,,,,,,,,,,,,,,,,,,,,,,,,,,,,,,,,,,,,,,,,,,,,,,,,,,,,,,,,,,,,,,,,,,
,,,,,,,,Jacob Sellers,2013,2021-03-03_10h53.54.611,experiment,2020.1.3,MacIntel,60,,,,,,,j,0.274735,0,0,0,0,1,trainingaudio/16_kokapi3.wav,pngimages/16_icecream.png,train1P1,pngimages/05_megaphone.png,0.5,-0.5,,,,,,,,,,,,,,,,,,,,,,,,,,,,,,,,,,,,,,,,,,,,,,,,,,,,,,,,,,,,,,
,,,,,,,,Jacob Sellers,2013,2021-03-03_10h53.54.611,experiment,2020.1.3,MacIntel,60,,,,,,,,,,,,,,,,,,,,0,11,11,11,1,ioaConditions/train1P1Block12.xlsx,ioaConditions/train1P1Block12Test.xlsx,,,,,,,,,,,,,,,,,,,,,,,,,,,,,,,,,,,,,,,,,,,,,,,,,,,,,,,
,0,0,0,0,1,trainingaudio/11_tokiko2.wav,pngimages/11_compass.png,Jacob Sellers,2013,2021-03-03_10h53.54.611,experiment,2020.1.3,MacIntel,60,,,,,,,,,,,,,,,,,,,,,,,,,,,,,,,,,,,,,,,,,,,,,,,,,,,,,,,,,,,,,,,,,,,,,,,,,,,,,,,,,
,,,,,,,,Jacob Sellers,2013,2021-03-03_10h53.54.611,experiment,2020.1.3,MacIntel,60,,0,0,0,0,1,,,,,,,,,,,,,,,,,,,,,,,,,,,,,,,,,,,,,,,,,,,,,,,,,,,,,,,,,,,,,,,,,,,,,,,,,,,
,,,,,,,,Jacob Sellers,2013,2021-03-03_10h53.54.611,experiment,2020.1.3,MacIntel,60,,,,,,,j,0.207535,0,0,0,0,1,trainingaudio/20_tatito2.wav,pngimages/20_pizza.png,train1P1,pngimages/11_compass.png,0.5,-0.5,,,,,,,,,,,,,,,,,,,,,,,,,,,,,,,,,,,,,,,,,,,,,,,,,,,,,,,,,,,,,,
,,,,,,,,Jacob Sellers,2013,2021-03-03_10h53.54.611,experiment,2020.1.3,MacIntel,60,,,,,,,,,,,,,,,,,,,,0,12,12,12,1,ioaConditions/train1P1Block13.xlsx,ioaConditions/train1P1Block13Test.xlsx,,,,,,,,,,,,,,,,,,,,,,,,,,,,,,,,,,,,,,,,,,,,,,,,,,,,,,,
,0,0,0,0,1,trainingaudio/14_pokoto1.wav,pngimages/14_coffee.png,Jacob Sellers,2013,2021-03-03_10h53.54.611,experiment,2020.1.3,MacIntel,60,,,,,,,,,,,,,,,,,,,,,,,,,,,,,,,,,,,,,,,,,,,,,,,,,,,,,,,,,,,,,,,,,,,,,,,,,,,,,,,,,
,,,,,,,,Jacob Sellers,2013,2021-03-03_10h53.54.611,experiment,2020.1.3,MacIntel,60,,0,0,0,0,1,,,,,,,,,,,,,,,,,,,,,,,,,,,,,,,,,,,,,,,,,,,,,,,,,,,,,,,,,,,,,,,,,,,,,,,,,,,
,,,,,,,,Jacob Sellers,2013,2021-03-03_10h53.54.611,experiment,2020.1.3,MacIntel,60,,,,,,,j,0.484575,0,0,0,0,1,trainingaudio/14_pokoto1.wav,pngimages/14_coffee.png,train1P1,pngimages/94_house.png,0.5,-0.5,,,,,,,,,,,,,,,,,,,,,,,,,,,,,,,,,,,,,,,,,,,,,,,,,,,,,,,,,,,,,,
,,,,,,,,Jacob Sellers,2013,2021-03-03_10h53.54.611,experiment,2020.1.3,MacIntel,60,,,,,,,,,,,,,,,,,,,,,,,,,,,0,0,0,0,1,ioaConditions/train1P1LoopCondition.xlsx,two,,,,,,,,,,,,,,,,,,,,,,,,,,,,,,,,,,,,,,,,,,,,,,,,
,0,0,0,0,1,trainingaudio/09_tipata1.wav,pngimages/09_plane.png,Jacob Sellers,2013,2021-03-03_10h53.54.611,experiment,2020.1.3,MacIntel,60,,,,,,,,,,,,,,,,,,,,,,,,,,,,,,,,,,,,,,,,,,,,,,,,,,,,,,,,,,,,,,,,,,,,,,,,,,,,,,,,,
,0,1,1,1,1,trainingaudio/15_kopota1.wav,pngimages/15_barrel.png,Jacob Sellers,2013,2021-03-03_10h53.54.611,experiment,2020.1.3,MacIntel,60,,,,,,,,,,,,,,,,,,,,,,,,,,,,,,,,,,,,,,,,,,,,,,,,,,,,,,,,,,,,,,,,,,,,,,,,,,,,,,,,,
,0,2,2,2,1,trainingaudio/14_pokoto1.wav,pngimages/14_coffee.png,Jacob Sellers,2013,2021-03-03_10h53.54.611,experiment,2020.1.3,MacIntel,60,,,,,,,,,,,,,,,,,,,,,,,,,,,,,,,,,,,,,,,,,,,,,,,,,,,,,,,,,,,,,,,,,,,,,,,,,,,,,,,,,
,,,,,,,,Jacob Sellers,2013,2021-03-03_10h53.54.611,experiment,2020.1.3,MacIntel,60,space,0,0,0,0,1,,,,,,,,,,,,,,,,,,,,,,,,,,,,6.96735,,,,,,,,,,,,,,,,,,,,,,,,,,,,,,,,,,,,,,,,,,,,,,,
,,,,,,,,Jacob Sellers,2013,2021-03-03_10h53.54.611,experiment,2020.1.3,MacIntel,60,,,,,,,f,1.68701,0,0,0,0,1,trainingaudio/09_tipata1.wav,pngimages/09_plane.png,train1P2,pngimages/19_burger.png,0.5,-0.5,,,,,,,,,,,,,,,,,,,,,,,,,,,,,,,,,,,,,,,,,,,,,,,,,,,,,,,,,,,,,,
,,,,,,,,Jacob Sellers,2013,2021-03-03_10h53.54.611,experiment,2020.1.3,MacIntel,60,,,,,,,f,0.75566,0,1,1,1,1,trainingaudio/15_kopota1.wav,pngimages/15_barrel.png,train1P2,pngimages/14_coffee.png,-0.5,0.5,,,,,,,,,,,,,,,,,,,,,,,,,,,,,,,,,,,,,,,,,,,,,,,,,,,,,,,,,,,,,,
,,,,,,,,Jacob Sellers,2013,2021-03-03_10h53.54.611,experiment,2020.1.3,MacIntel,60,,,,,,,,,,,,,,,,,,,,0,0,0,0,1,ioaConditions/train1P2Block1.xlsx,ioaConditions/train1P2Block1Test.xlsx,,,,,,,,,,,,,,,,,,,,,,,,,,,,,,,,,,,,,,,,,,,,,,,,,,,,,,,
,0,0,0,0,1,trainingaudio/16_kokapi3.wav,pngimages/16_icecream.png,Jacob Sellers,2013,2021-03-03_10h53.54.611,experiment,2020.1.3,MacIntel,60,,,,,,,,,,,,,,,,,,,,,,,,,,,,,,,,,,,,,,,,,,,,,,,,,,,,,,,,,,,,,,,,,,,,,,,,,,,,,,,,,
,0,1,1,1,1,trainingaudio/26_kapako3.wav,pngimages/26_pineapple.png,Jacob Sellers,2013,2021-03-03_10h53.54.611,experiment,2020.1.3,MacIntel,60,,,,,,,,,,,,,,,,,,,,,,,,,,,,,,,,,,,,,,,,,,,,,,,,,,,,,,,,,,,,,,,,,,,,,,,,,,,,,,,,,
,0,2,2,2,1,trainingaudio/17_kotako1.wav,pngimages/17_cracker.png,Jacob Sellers,2013,2021-03-03_10h53.54.611,experiment,2020.1.3,MacIntel,60,,,,,,,,,,,,,,,,,,,,,,,,,,,,,,,,,,,,,,,,,,,,,,,,,,,,,,,,,,,,,,,,,,,,,,,,,,,,,,,,,
,,,,,,,,Jacob Sellers,2013,2021-03-03_10h53.54.611,experiment,2020.1.3,MacIntel,60,,0,0,0,0,1,,,,,,,,,,,,,,,,,,,,,,,,,,,,,,,,,,,,,,,,,,,,,,,,,,,,,,,,,,,,,,,,,,,,,,,,,,,
,,,,,,,,Jacob Sellers,2013,2021-03-03_10h53.54.611,experiment,2020.1.3,MacIntel,60,,,,,,,f,0.33608,0,0,0,0,1,trainingaudio/11_tokiko2.wav,pngimages/11_compass.png,train1P2,pngimages/26_pineapple.png,-0.5,0.5,,,,,,,,,,,,,,,,,,,,,,,,,,,,,,,,,,,,,,,,,,,,,,,,,,,,,,,,,,,,,,
,,,,,,,,Jacob Sellers,2013,2021-03-03_10h53.54.611,experiment,2020.1.3,MacIntel,60,,,,,,,f,0.81028,0,1,1,1,1,trainingaudio/17_kotako1.wav,pngimages/17_cracker.png,train1P2,pngimages/16_icecream.png,-0.5,0.5,,,,,,,,,,,,,,,,,,,,,,,,,,,,,,,,,,,,,,,,,,,,,,,,,,,,,,,,,,,,,,
,,,,,,,,Jacob Sellers,2013,2021-03-03_10h53.54.611,experiment,2020.1.3,MacIntel,60,,,,,,,,,,,,,,,,,,,,0,1,1,1,1,ioaConditions/train1P2Block2.xlsx,ioaConditions/train1P2Block2Test.xlsx,,,,,,,,,,,,,,,,,,,,,,,,,,,,,,,,,,,,,,,,,,,,,,,,,,,,,,,
,0,0,0,0,1,trainingaudio/08_tipako1.wav,pngimages/08_bell.png,Jacob Sellers,2013,2021-03-03_10h53.54.611,experiment,2020.1.3,MacIntel,60,,,,,,,,,,,,,,,,,,,,,,,,,,,,,,,,,,,,,,,,,,,,,,,,,,,,,,,,,,,,,,,,,,,,,,,,,,,,,,,,,
,0,1,1,1,1,trainingaudio/07_pitapi1.wav,pngimages/07_suitcase.png,Jacob Sellers,2013,2021-03-03_10h53.54.611,experiment,2020.1.3,MacIntel,60,,,,,,,,,,,,,,,,,,,,,,,,,,,,,,,,,,,,,,,,,,,,,,,,,,,,,,,,,,,,,,,,,,,,,,,,,,,,,,,,,
,0,2,2,2,1,trainingaudio/03_kikita1.wav,pngimages/03_box.png,Jacob Sellers,2013,2021-03-03_10h53.54.611,experiment,2020.1.3,MacIntel,60,,,,,,,,,,,,,,,,,,,,,,,,,,,,,,,,,,,,,,,,,,,,,,,,,,,,,,,,,,,,,,,,,,,,,,,,,,,,,,,,,
,,,,,,,,Jacob Sellers,2013,2021-03-03_10h53.54.611,experiment,2020.1.3,MacIntel,60,,0,0,0,0,1,,,,,,,,,,,,,,,,,,,,,,,,,,,,,,,,,,,,,,,,,,,,,,,,,,,,,,,,,,,,,,,,,,,,,,,,,,,
,,,,,,,,Jacob Sellers,2013,2021-03-03_10h53.54.611,experiment,2020.1.3,MacIntel,60,,,,,,,j,0.83591,0,0,0,0,1,trainingaudio/07_pitapi1.wav,pngimages/07_suitcase.png,train1P2,pngimages/08_bell.png,0.5,-0.5,,,,,,,,,,,,,,,,,,,,,,,,,,,,,,,,,,,,,,,,,,,,,,,,,,,,,,,,,,,,,,
,,,,,,,,Jacob Sellers,2013,2021-03-03_10h53.54.611,experiment,2020.1.3,MacIntel,60,,,,,,,f,0.58371,0,1,1,1,1,trainingaudio/03_kikita1.wav,pngimages/03_box.png,train1P2,pngimages/01_gift.png,-0.5,0.5,,,,,,,,,,,,,,,,,,,,,,,,,,,,,,,,,,,,,,,,,,,,,,,,,,,,,,,,,,,,,,
,,,,,,,,Jacob Sellers,2013,2021-03-03_10h53.54.611,experiment,2020.1.3,MacIntel,60,,,,,,,,,,,,,,,,,,,,0,2,2,2,1,ioaConditions/train1P2Block3.xlsx,ioaConditions/train1P2Block3Test.xlsx,,,,,,,,,,,,,,,,,,,,,,,,,,,,,,,,,,,,,,,,,,,,,,,,,,,,,,,
,0,0,0,0,1,trainingaudio/12_pokika2.wav,pngimages/12_pie.png,Jacob Sellers,2013,2021-03-03_10h53.54.611,experiment,2020.1.3,MacIntel,60,,,,,,,,,,,,,,,,,,,,,,,,,,,,,,,,,,,,,,,,,,,,,,,,,,,,,,,,,,,,,,,,,,,,,,,,,,,,,,,,,
,0,1,1,1,1,trainingaudio/22_kakoki3.wav,pngimages/22_egg.png,Jacob Sellers,2013,2021-03-03_10h53.54.611,experiment,2020.1.3,MacIntel,60,,,,,,,,,,,,,,,,,,,,,,,,,,,,,,,,,,,,,,,,,,,,,,,,,,,,,,,,,,,,,,,,,,,,,,,,,,,,,,,,,
,0,2,2,2,1,trainingaudio/04_kitoti1.wav,pngimages/04_ladder.png,Jacob Sellers,2013,2021-03-03_10h53.54.611,experiment,2020.1.3,MacIntel,60,,,,,,,,,,,,,,,,,,,,,,,,,,,,,,,,,,,,,,,,,,,,,,,,,,,,,,,,,,,,,,,,,,,,,,,,,,,,,,,,,
,,,,,,,,Jacob Sellers,2013,2021-03-03_10h53.54.611,experiment,2020.1.3,MacIntel,60,,0,0,0,0,1,,,,,,,,,,,,,,,,,,,,,,,,,,,,,,,,,,,,,,,,,,,,,,,,,,,,,,,,,,,,,,,,,,,,,,,,,,,
,,,,,,,,Jacob Sellers,2013,2021-03-03_10h53.54.611,experiment,2020.1.3,MacIntel,60,,,,,,,j,0.468375,0,0,0,0,1,trainingaudio/04_kitoti1.wav,pngimages/04_ladder.png,train1P2,pngimages/12_pie.png,0.5,-0.5,,,,,,,,,,,,,,,,,,,,,,,,,,,,,,,,,,,,,,,,,,,,,,,,,,,,,,,,,,,,,,
,,,,,,,,Jacob Sellers,2013,2021-03-03_10h53.54.611,experiment,2020.1.3,MacIntel,60,,,,,,,j,0.202085,0,1,1,1,1,trainingaudio/22_kakoki3.wav,pngimages/22_egg.png,train1P2,pngimages/02_pallet.png,-0.5,0.5,,,,,,,,,,,,,,,,,,,,,,,,,,,,,,,,,,,,,,,,,,,,,,,,,,,,,,,,,,,,,,
,,,,,,,,Jacob Sellers,2013,2021-03-03_10h53.54.611,experiment,2020.1.3,MacIntel,60,,,,,,,,,,,,,,,,,,,,0,3,3,3,1,ioaConditions/train1P2Block4.xlsx,ioaConditions/train1P2Block4Test.xlsx,,,,,,,,,,,,,,,,,,,,,,,,,,,,,,,,,,,,,,,,,,,,,,,,,,,,,,,
,0,0,0,0,1,trainingaudio/23_patoko2.wav,pngimages/23_lemon.png,Jacob Sellers,2013,2021-03-03_10h53.54.611,experiment,2020.1.3,MacIntel,60,,,,,,,,,,,,,,,,,,,,,,,,,,,,,,,,,,,,,,,,,,,,,,,,,,,,,,,,,,,,,,,,,,,,,,,,,,,,,,,,,
,0,1,1,1,1,trainingaudio/10_tokiti2.wav,pngimages/10_backpack.png,Jacob Sellers,2013,2021-03-03_10h53.54.611,experiment,2020.1.3,MacIntel,60,,,,,,,,,,,,,,,,,,,,,,,,,,,,,,,,,,,,,,,,,,,,,,,,,,,,,,,,,,,,,,,,,,,,,,,,,,,,,,,,,
,0,2,2,2,1,trainingaudio/20_tatito2.wav,pngimages/20_pizza.png,Jacob Sellers,2013,2021-03-03_10h53.54.611,experiment,2020.1.3,MacIntel,60,,,,,,,,,,,,,,,,,,,,,,,,,,,,,,,,,,,,,,,,,,,,,,,,,,,,,,,,,,,,,,,,,,,,,,,,,,,,,,,,,
,,,,,,,,Jacob Sellers,2013,2021-03-03_10h53.54.611,experiment,2020.1.3,MacIntel,60,,0,0,0,0,1,,,,,,,,,,,,,,,,,,,,,,,,,,,,,,,,,,,,,,,,,,,,,,,,,,,,,,,,,,,,,,,,,,,,,,,,,,,
,,,,,,,,Jacob Sellers,2013,2021-03-03_10h53.54.611,experiment,2020.1.3,MacIntel,60,,,,,,,f,0.8385,0,0,0,0,1,trainingaudio/10_tokiti2.wav,pngimages/10_backpack.png,train1P2,pngimages/23_lemon.png,0.5,-0.5,,,,,,,,,,,,,,,,,,,,,,,,,,,,,,,,,,,,,,,,,,,,,,,,,,,,,,,,,,,,,,
,,,,,,,,Jacob Sellers,2013,2021-03-03_10h53.54.611,experiment,2020.1.3,MacIntel,60,,,,,,,f,0.93949,0,1,1,1,1,trainingaudio/25_tapapi3.wav,pngimages/25_apple.png,train1P2,pngimages/20_pizza.png,-0.5,0.5,,,,,,,,,,,,,,,,,,,,,,,,,,,,,,,,,,,,,,,,,,,,,,,,,,,,,,,,,,,,,,
,,,,,,,,Jacob Sellers,2013,2021-03-03_10h53.54.611,experiment,2020.1.3,MacIntel,60,,,,,,,,,,,,,,,,,,,,0,4,4,4,1,ioaConditions/train1P2Block5.xlsx,ioaConditions/train1P2Block5Test.xlsx,,,,,,,,,,,,,,,,,,,,,,,,,,,,,,,,,,,,,,,,,,,,,,,,,,,,,,,
,0,0,0,0,1,trainingaudio/18_popata1.wav,pngimages/18_donut.png,Jacob Sellers,2013,2021-03-03_10h53.54.611,experiment,2020.1.3,MacIntel,60,,,,,,,,,,,,,,,,,,,,,,,,,,,,,,,,,,,,,,,,,,,,,,,,,,,,,,,,,,,,,,,,,,,,,,,,,,,,,,,,,
,0,1,1,1,1,trainingaudio/06_titoka1.wav,pngimages/06_tent.png,Jacob Sellers,2013,2021-03-03_10h53.54.611,experiment,2020.1.3,MacIntel,60,,,,,,,,,,,,,,,,,,,,,,,,,,,,,,,,,,,,,,,,,,,,,,,,,,,,,,,,,,,,,,,,,,,,,,,,,,,,,,,,,
,0,2,2,2,1,trainingaudio/21_papika2.wav,pngimages/21_cheese.png,Jacob Sellers,2013,2021-03-03_10h53.54.611,experiment,2020.1.3,MacIntel,60,,,,,,,,,,,,,,,,,,,,,,,,,,,,,,,,,,,,,,,,,,,,,,,,,,,,,,,,,,,,,,,,,,,,,,,,,,,,,,,,,
,,,,,,,,Jacob Sellers,2013,2021-03-03_10h53.54.611,experiment,2020.1.3,MacIntel,60,,0,0,0,0,1,,,,,,,,,,,,,,,,,,,,,,,,,,,,,,,,,,,,,,,,,,,,,,,,,,,,,,,,,,,,,,,,,,,,,,,,,,,
,,,,,,,,Jacob Sellers,2013,2021-03-03_10h53.54.611,experiment,2020.1.3,MacIntel,60,,,,,,,j,2.18621,0,0,0,0,1,trainingaudio/21_papika2.wav,pngimages/21_cheese.png,train1P2,pngimages/18_donut.png,-0.5,0.5,,,,,,,,,,,,,,,,,,,,,,,,,,,,,,,,,,,,,,,,,,,,,,,,,,,,,,,,,,,,,,
,,,,,,,,Jacob Sellers,2013,2021-03-03_10h53.54.611,experiment,2020.1.3,MacIntel,60,,,,,,,f,0.00471,0,1,1,1,1,trainingaudio/06_titoka1.wav,pngimages/06_tent.png,train1P2,pngimages/27_kiwi.png,-0.5,0.5,,,,,,,,,,,,,,,,,,,,,,,,,,,,,,,,,,,,,,,,,,,,,,,,,,,,,,,,,,,,,,
,,,,,,,,Jacob Sellers,2013,2021-03-03_10h53.54.611,experiment,2020.1.3,MacIntel,60,,,,,,,,,,,,,,,,,,,,0,5,5,5,1,ioaConditions/train1P2Block6.xlsx,ioaConditions/train1P2Block6Test.xlsx,,,,,,,,,,,,,,,,,,,,,,,,,,,,,,,,,,,,,,,,,,,,,,,,,,,,,,,
,0,0,0,0,1,trainingaudio/24_takopa2.wav,pngimages/24_banana.png,Jacob Sellers,2013,2021-03-03_10h53.54.611,experiment,2020.1.3,MacIntel,60,,,,,,,,,,,,,,,,,,,,,,,,,,,,,,,,,,,,,,,,,,,,,,,,,,,,,,,,,,,,,,,,,,,,,,,,,,,,,,,,,
,0,1,1,1,1,trainingaudio/13_kopopi3.wav,pngimages/13_toast.png,Jacob Sellers,2013,2021-03-03_10h53.54.611,experiment,2020.1.3,MacIntel,60,,,,,,,,,,,,,,,,,,,,,,,,,,,,,,,,,,,,,,,,,,,,,,,,,,,,,,,,,,,,,,,,,,,,,,,,,,,,,,,,,
,0,2,2,2,1,trainingaudio/05_titopo1.wav,pngimages/05_megaphone.png,Jacob Sellers,2013,2021-03-03_10h53.54.611,experiment,2020.1.3,MacIntel,60,,,,,,,,,,,,,,,,,,,,,,,,,,,,,,,,,,,,,,,,,,,,,,,,,,,,,,,,,,,,,,,,,,,,,,,,,,,,,,,,,
,,,,,,,,Jacob Sellers,2013,2021-03-03_10h53.54.611,experiment,2020.1.3,MacIntel,60,,0,0,0,0,1,,,,,,,,,,,,,,,,,,,,,,,,,,,,,,,,,,,,,,,,,,,,,,,,,,,,,,,,,,,,,,,,,,,,,,,,,,,
,,,,,,,,Jacob Sellers,2013,2021-03-03_10h53.54.611,experiment,2020.1.3,MacIntel,60,,,,,,,j,0.62238,0,0,0,0,1,trainingaudio/94_kipipi1.wav,pngimages/94_house.png,train1P2,pngimages/24_banana.png,0.5,-0.5,,,,,,,,,,,,,,,,,,,,,,,,,,,,,,,,,,,,,,,,,,,,,,,,,,,,,,,,,,,,,,
,,,,,,,,Jacob Sellers,2013,2021-03-03_10h53.54.611,experiment,2020.1.3,MacIntel,60,,,,,,,j,0.890985,0,1,1,1,1,trainingaudio/05_titopo1.wav,pngimages/05_megaphone.png,train1P2,pngimages/13_toast.png,-0.5,0.5,,,,,,,,,,,,,,,,,,,,,,,,,,,,,,,,,,,,,,,,,,,,,,,,,,,,,,,,,,,,,,
,,,,,,,pngimages/04_ladder.png,Jacob Sellers,2013,2021-03-03_10h53.54.611,experiment,2020.1.3,MacIntel,60,,,,,,,,,,,,,,,,test1,,,,,,,,,,,,,,,,,,,space,48.897665,space,9.397315,j,1.146785,0,0,0,0,1,trainingaudio/04_kitoti2.wav,trainingaudio/04_kitoti1.wav,2,trainingaudio/04_kitoti1.wav,,,,,,,,,,,,,,,,,,,,,,,,,,,,,,,,
,,,,,,,pngimages/12_pie.png,Jacob Sellers,2013,2021-03-03_10h53.54.611,experiment,2020.1.3,MacIntel,60,,,,,,,,,,,,,,,,test1,,,,,,,,,,,,,,,,,,,,,,,f,2.512255,0,1,1,1,1,trainingaudio/12_pokika1.wav,trainingaudio/12_pokika2.wav,2,trainingaudio/12_pokika2.wav,,,,,,,,,,,,,,,,,,,,,,,,,,,,,,,,
,,,,,,,pngimages/02_pallet.png,Jacob Sellers,2013,2021-03-03_10h53.54.611,experiment,2020.1.3,MacIntel,60,,,,,,,,,,,,,,,,test1,,,,,,,,,,,,,,,,,,,,,,,f,0.94638,0,2,2,2,1,trainingaudio/02_pitito1.wav,trainingaudio/02_pitito2.wav,1,trainingaudio/02_pitito1.wav,,,,,,,,,,,,,,,,,,,,,,,,,,,,,,,,
,,,,,,,pngimages/20_pizza.png,Jacob Sellers,2013,2021-03-03_10h53.54.611,experiment,2020.1.3,MacIntel,60,,,,,,,,,,,,,,,,test1,,,,,,,,,,,,,,,,,,,,,,,f,1.72128,0,3,3,3,1,trainingaudio/20_tatito1.wav,trainingaudio/20_tatito2.wav,2,trainingaudio/20_tatito2.wav,,,,,,,,,,,,,,,,,,,,,,,,,,,,,,,,
,,,,,,,pngimages/24_banana.png,Jacob Sellers,2013,2021-03-03_10h53.54.611,experiment,2020.1.3,MacIntel,60,,,,,,,,,,,,,,,,test1,,,,,,,,,,,,,,,,,,,,,,,f,2.562875,0,4,4,4,1,trainingaudio/24_takopa1.wav,trainingaudio/24_takopa2.wav,2,trainingaudio/24_takopa2.wav,,,,,,,,,,,,,,,,,,,,,,,,,,,,,,,,
,,,,,,,pngimages/09_plane.png,Jacob Sellers,2013,2021-03-03_10h53.54.611,experiment,2020.1.3,MacIntel,60,,,,,,,,,,,,,,,,test1,,,,,,,,,,,,,,,,,,,,,,,j,1.18342,0,5,5,5,1,trainingaudio/09_tipata2.wav,trainingaudio/09_tipata1.wav,2,trainingaudio/09_tipata1.wav,,,,,,,,,,,,,,,,,,,,,,,,,,,,,,,,
,,,,,,,pngimages/14_coffee.png,Jacob Sellers,2013,2021-03-03_10h53.54.611,experiment,2020.1.3,MacIntel,60,,,,,,,,,,,,,,,,test1,,,,,,,,,,,,,,,,,,,,,,,f,1.149525,0,6,6,6,1,trainingaudio/14_pokoto3.wav,trainingaudio/14_pokoto1.wav,2,trainingaudio/14_pokoto1.wav,,,,,,,,,,,,,,,,,,,,,,,,,,,,,,,,
,,,,,,,pngimages/15_barrel.png,Jacob Sellers,2013,2021-03-03_10h53.54.611,experiment,2020.1.3,MacIntel,60,,,,,,,,,,,,,,,,test1,,,,,,,,,,,,,,,,,,,,,,,f,0.58176,0,7,7,7,1,trainingaudio/15_kopota1.wav,trainingaudio/15_kopota3.wav,1,trainingaudio/15_kopota1.wav,,,,,,,,,,,,,,,,,,,,,,,,,,,,,,,,
,,,,,,,pngimages/27_kiwi.png,Jacob Sellers,2013,2021-03-03_10h53.54.611,experiment,2020.1.3,MacIntel,60,,,,,,,,,,,,,,,,test1,,,,,,,,,,,,,,,,,,,,,,,j,2.13221,0,8,8,8,1,trainingaudio/27_pakapa3.wav,trainingaudio/27_pakapa1.wav,2,trainingaudio/27_pakapa1.wav,,,,,,,,,,,,,,,,,,,,,,,,,,,,,,,,
,,,,,,,pngimages/22_egg.png,Jacob Sellers,2013,2021-03-03_10h53.54.611,experiment,2020.1.3,MacIntel,60,,,,,,,,,,,,,,,,test1,,,,,,,,,,,,,,,,,,,,,,,f,0.45419,0,9,9,9,1,trainingaudio/22_kakoki3.wav,trainingaudio/22_kakoki2.wav,1,trainingaudio/22_kakoki3.wav,,,,,,,,,,,,,,,,,,,,,,,,,,,,,,,,
,,,,,,,pngimages/18_donut.png,Jacob Sellers,2013,2021-03-03_10h53.54.611,experiment,2020.1.3,MacIntel,60,,,,,,,,,,,,,,,,test1,,,,,,,,,,,,,,,,,,,,,,,j,1.24797,0,10,10,10,1,trainingaudio/18_popata1.wav,trainingaudio/18_popata3.wav,1,trainingaudio/18_popata1.wav,,,,,,,,,,,,,,,,,,,,,,,,,,,,,,,,
,,,,,,,pngimages/13_toast.png,Jacob Sellers,2013,2021-03-03_10h53.54.611,experiment,2020.1.3,MacIntel,60,,,,,,,,,,,,,,,,test1,,,,,,,,,,,,,,,,,,,,,,,f,0.59639,0,11,11,11,1,trainingaudio/13_kopopi3.wav,trainingaudio/13_kopopi1.wav,1,trainingaudio/13_kopopi3.wav,,,,,,,,,,,,,,,,,,,,,,,,,,,,,,,,
,,,,,,,pngimages/06_tent.png,Jacob Sellers,2013,2021-03-03_10h53.54.611,experiment,2020.1.3,MacIntel,60,,,,,,,,,,,,,,,,test1,,,,,,,,,,,,,,,,,,,,,,,f,1.288055,0,12,12,12,1,trainingaudio/06_titoka1.wav,trainingaudio/06_titoka2.wav,1,trainingaudio/06_titoka1.wav,,,,,,,,,,,,,,,,,,,,,,,,,,,,,,,,
,,,,,,,pngimages/11_compass.png,Jacob Sellers,2013,2021-03-03_10h53.54.611,experiment,2020.1.3,MacIntel,60,,,,,,,,,,,,,,,,test1,,,,,,,,,,,,,,,,,,,,,,,j,1.02239,0,13,13,13,1,trainingaudio/11_tokiko3.wav,trainingaudio/11_tokiko2.wav,2,trainingaudio/11_tokiko2.wav,,,,,,,,,,,,,,,,,,,,,,,,,,,,,,,,
,,,,,,,pngimages/05_megaphone.png,Jacob Sellers,2013,2021-03-03_10h53.54.611,experiment,2020.1.3,MacIntel,60,,,,,,,,,,,,,,,,test1,,,,,,,,,,,,,,,,,,,,,,,j,0.832115,0,14,14,14,1,trainingaudio/05_titopo1.wav,trainingaudio/05_titopo3.wav,1,trainingaudio/05_titopo1.wav,,,,,,,,,,,,,,,,,,,,,,,,,,,,,,,,
,,,,,,,pngimages/94_house.png,Jacob Sellers,2013,2021-03-03_10h53.54.611,experiment,2020.1.3,MacIntel,60,,,,,,,,,,,,,,,,test1,,,,,,,,,,,,,,,,,,,,,,,f,2.311365,0,15,15,15,1,trainingaudio/94_kipipi1.wav,trainingaudio/94_kipipi2.wav,1,trainingaudio/94_kipipi1.wav,,,,,,,,,,,,,,,,,,,,,,,,,,,,,,,,
,,,,,,,pngimages/07_suitcase.png,Jacob Sellers,2013,2021-03-03_10h53.54.611,experiment,2020.1.3,MacIntel,60,,,,,,,,,,,,,,,,test1,,,,,,,,,,,,,,,,,,,,,,,f,1.031855,0,16,16,16,1,trainingaudio/07_pitapi1.wav,trainingaudio/07_pitapi3.wav,1,trainingaudio/07_pitapi1.wav,,,,,,,,,,,,,,,,,,,,,,,,,,,,,,,,
,,,,,,,pngimages/25_apple.png,Jacob Sellers,2013,2021-03-03_10h53.54.611,experiment,2020.1.3,MacIntel,60,,,,,,,,,,,,,,,,test1,,,,,,,,,,,,,,,,,,,,,,,j,0.71316,0,17,17,17,1,trainingaudio/25_tapapi1.wav,trainingaudio/25_tapapi3.wav,2,trainingaudio/25_tapapi3.wav,,,,,,,,,,,,,,,,,,,,,,,,,,,,,,,,
,,,,,,,pngimages/03_box.png,Jacob Sellers,2013,2021-03-03_10h53.54.611,experiment,2020.1.3,MacIntel,60,,,,,,,,,,,,,,,,test1,,,,,,,,,,,,,,,,,,,,,,,f,0.46394,0,18,18,18,1,trainingaudio/03_kikita3.wav,trainingaudio/03_kikita1.wav,2,trainingaudio/03_kikita1.wav,,,,,,,,,,,,,,,,,,,,,,,,,,,,,,,,
,,,,,,,pngimages/01_gift.png,Jacob Sellers,2013,2021-03-03_10h53.54.611,experiment,2020.1.3,MacIntel,60,,,,,,,,,,,,,,,,test1,,,,,,,,,,,,,,,,,,,,,,,j,0.63226,0,19,19,19,1,trainingaudio/01_kitipi2.wav,trainingaudio/01_kitipi1.wav,2,trainingaudio/01_kitipi1.wav,,,,,,,,,,,,,,,,,,,,,,,,,,,,,,,,
,,,,,,,pngimages/26_pineapple.png,Jacob Sellers,2013,2021-03-03_10h53.54.611,experiment,2020.1.3,MacIntel,60,,,,,,,,,,,,,,,,test1,,,,,,,,,,,,,,,,,,,,,,,f,0.58186,0,20,20,20,1,trainingaudio/26_kapako1.wav,trainingaudio/26_kapako3.wav,2,trainingaudio/26_kapako3.wav,,,,,,,,,,,,,,,,,,,,,,,,,,,,,,,,
,,,,,,,pngimages/10_backpack.png,Jacob Sellers,2013,2021-03-03_10h53.54.611,experiment,2020.1.3,MacIntel,60,,,,,,,,,,,,,,,,test1,,,,,,,,,,,,,,,,,,,,,,,j,0.479765,0,21,21,21,1,trainingaudio/10_tokiti3.wav,trainingaudio/10_tokiti2.wav,2,trainingaudio/10_tokiti2.wav,,,,,,,,,,,,,,,,,,,,,,,,,,,,,,,,
,,,,,,,pngimages/21_cheese.png,Jacob Sellers,2013,2021-03-03_10h53.54.611,experiment,2020.1.3,MacIntel,60,,,,,,,,,,,,,,,,test1,,,,,,,,,,,,,,,,,,,,,,,f,1.482675,0,22,22,22,1,trainingaudio/21_papika2.wav,trainingaudio/21_papika3.wav,1,trainingaudio/21_papika2.wav,,,,,,,,,,,,,,,,,,,,,,,,,,,,,,,,
,,,,,,,pngimages/19_burger.png,Jacob Sellers,2013,2021-03-03_10h53.54.611,experiment,2020.1.3,MacIntel,60,,,,,,,,,,,,,,,,test1,,,,,,,,,,,,,,,,,,,,,,,j,1.733165,0,23,23,23,1,trainingaudio/19_papipi2.wav,trainingaudio/19_papipi3.wav,1,trainingaudio/19_papipi2.wav,,,,,,,,,,,,,,,,,,,,,,,,,,,,,,,,
,,,,,,,pngimages/17_cracker.png,Jacob Sellers,2013,2021-03-03_10h53.54.611,experiment,2020.1.3,MacIntel,60,,,,,,,,,,,,,,,,test1,,,,,,,,,,,,,,,,,,,,,,,j,3.205905,0,24,24,24,1,trainingaudio/17_kotako2.wav,trainingaudio/17_kotako1.wav,2,trainingaudio/17_kotako1.wav,,,,,,,,,,,,,,,,,,,,,,,,,,,,,,,,
,,,,,,,pngimages/16_icecream.png,Jacob Sellers,2013,2021-03-03_10h53.54.611,experiment,2020.1.3,MacIntel,60,,,,,,,,,,,,,,,,test1,,,,,,,,,,,,,,,,,,,,,,,f,0.668305,0,25,25,25,1,trainingaudio/16_kokapi1.wav,trainingaudio/16_kokapi3.wav,2,trainingaudio/16_kokapi3.wav,,,,,,,,,,,,,,,,,,,,,,,,,,,,,,,,
,,,,,,,pngimages/23_lemon.png,Jacob Sellers,2013,2021-03-03_10h53.54.611,experiment,2020.1.3,MacIntel,60,,,,,,,,,,,,,,,,test1,,,,,,,,,,,,,,,,,,,,,,,f,0.296925,0,26,26,26,1,trainingaudio/23_patoko1.wav,trainingaudio/23_patoko2.wav,2,trainingaudio/23_patoko2.wav,,,,,,,,,,,,,,,,,,,,,,,,,,,,,,,,
,,,,,,,pngimages/08_bell.png,Jacob Sellers,2013,2021-03-03_10h53.54.611,experiment,2020.1.3,MacIntel,60,,,,,,,,,,,,,,,,test1,,,,,,,,,,,,,,,,,,,,,,,j,0.90042,0,27,27,27,1,trainingaudio/08_tipako1.wav,trainingaudio/08_tipako3.wav,1,trainingaudio/08_tipako1.wav,,,,,,,,,,,,,,,,,,,,,,,,,,,,,,,,
,,,,,,,pngimages/27_kiwi.png,Jacob Sellers,2013,2021-03-03_10h53.54.611,experiment,2020.1.3,MacIntel,60,,,,,,,,,,,,,,,,test1,,,,,,,,,,,,,,,,,,,,,,,j,0.86511,0,28,28,28,1,trainingaudio/27_pakapa2.wav,trainingaudio/27_pakapa1.wav,2,trainingaudio/27_pakapa1.wav,,,,,,,,,,,,,,,,,,,,,,,,,,,,,,,,
,,,,,,,pngimages/20_pizza.png,Jacob Sellers,2013,2021-03-03_10h53.54.611,experiment,2020.1.3,MacIntel,60,,,,,,,,,,,,,,,,test1,,,,,,,,,,,,,,,,,,,,,,,f,3.087115,0,29,29,29,1,trainingaudio/20_tatito3.wav,trainingaudio/20_tatito2.wav,2,trainingaudio/20_tatito2.wav,,,,,,,,,,,,,,,,,,,,,,,,,,,,,,,,
,,,,,,,pngimages/12_pie.png,Jacob Sellers,2013,2021-03-03_10h53.54.611,experiment,2020.1.3,MacIntel,60,,,,,,,,,,,,,,,,test1,,,,,,,,,,,,,,,,,,,,,,,j,2.155455,0,30,30,30,1,trainingaudio/12_pokika2.wav,trainingaudio/12_pokika1.wav,1,trainingaudio/12_pokika2.wav,,,,,,,,,,,,,,,,,,,,,,,,,,,,,,,,
,,,,,,,pngimages/01_gift.png,Jacob Sellers,2013,2021-03-03_10h53.54.611,experiment,2020.1.3,MacIntel,60,,,,,,,,,,,,,,,,test1,,,,,,,,,,,,,,,,,,,,,,,j,2.961315,0,31,31,31,1,trainingaudio/01_kitipi3.wav,trainingaudio/01_kitipi1.wav,2,trainingaudio/01_kitipi1.wav,,,,,,,,,,,,,,,,,,,,,,,,,,,,,,,,
,,,,,,,pngimages/09_plane.png,Jacob Sellers,2013,2021-03-03_10h53.54.611,experiment,2020.1.3,MacIntel,60,,,,,,,,,,,,,,,,test1,,,,,,,,,,,,,,,,,,,,,,,j,0.56327,0,32,32,32,1,trainingaudio/09_tipata3.wav,trainingaudio/09_tipata1.wav,2,trainingaudio/09_tipata1.wav,,,,,,,,,,,,,,,,,,,,,,,,,,,,,,,,
,,,,,,,pngimages/25_apple.png,Jacob Sellers,2013,2021-03-03_10h53.54.611,experiment,2020.1.3,MacIntel,60,,,,,,,,,,,,,,,,test1,,,,,,,,,,,,,,,,,,,,,,,j,0.06408,0,33,33,33,1,trainingaudio/25_tapapi2.wav,trainingaudio/25_tapapi3.wav,2,trainingaudio/25_tapapi3.wav,,,,,,,,,,,,,,,,,,,,,,,,,,,,,,,,
,,,,,,,pngimages/02_pallet.png,Jacob Sellers,2013,2021-03-03_10h53.54.611,experiment,2020.1.3,MacIntel,60,,,,,,,,,,,,,,,,test1,,,,,,,,,,,,,,,,,,,,,,,f,0.16385,0,34,34,34,1,trainingaudio/02_pitito1.wav,trainingaudio/02_pitito3.wav,1,trainingaudio/02_pitito1.wav,,,,,,,,,,,,,,,,,,,,,,,,,,,,,,,,
,,,,,,,pngimages/08_bell.png,Jacob Sellers,2013,2021-03-03_10h53.54.611,experiment,2020.1.3,MacIntel,60,,,,,,,,,,,,,,,,test1,,,,,,,,,,,,,,,,,,,,,,,j,3.147275,0,35,35,35,1,trainingaudio/08_tipako1.wav,trainingaudio/08_tipako2.wav,1,trainingaudio/08_tipako1.wav,,,,,,,,,,,,,,,,,,,,,,,,,,,,,,,,
,,,,,,,pngimages/15_barrel.png,Jacob Sellers,2013,2021-03-03_10h53.54.611,experiment,2020.1.3,MacIntel,60,,,,,,,,,,,,,,,,test1,,,,,,,,,,,,,,,,,,,,,,,f,0.731205,0,36,36,36,1,trainingaudio/15_kopota2.wav,trainingaudio/15_kopota1.wav,2,trainingaudio/15_kopota1.wav,,,,,,,,,,,,,,,,,,,,,,,,,,,,,,,,
,,,,,,,pngimages/24_banana.png,Jacob Sellers,2013,2021-03-03_10h53.54.611,experiment,2020.1.3,MacIntel,60,,,,,,,,,,,,,,,,test1,,,,,,,,,,,,,,,,,,,,,,,j,8.42302,0,37,37,37,1,trainingaudio/24_takopa3.wav,trainingaudio/24_takopa2.wav,2,trainingaudio/24_takopa2.wav,,,,,,,,,,,,,,,,,,,,,,,,,,,,,,,,
,,,,,,,pngimages/06_tent.png,Jacob Sellers,2013,2021-03-03_10h53.54.611,experiment,2020.1.3,MacIntel,60,,,,,,,,,,,,,,,,test1,,,,,,,,,,,,,,,,,,,,,,,f,0.369315,0,38,38,38,1,trainingaudio/06_titoka3.wav,trainingaudio/06_titoka1.wav,2,trainingaudio/06_titoka1.wav,,,,,,,,,,,,,,,,,,,,,,,,,,,,,,,,
,,,,,,,pngimages/16_icecream.png,Jacob Sellers,2013,2021-03-03_10h53.54.611,experiment,2020.1.3,MacIntel,60,,,,,,,,,,,,,,,,test1,,,,,,,,,,,,,,,,,,,,,,,j,1.689035,0,39,39,39,1,trainingaudio/16_kokapi3.wav,trainingaudio/16_kokapi2.wav,1,trainingaudio/16_kokapi3.wav,,,,,,,,,,,,,,,,,,,,,,,,,,,,,,,,
,,,,,,,pngimages/04_ladder.png,Jacob Sellers,2013,2021-03-03_10h53.54.611,experiment,2020.1.3,MacIntel,60,,,,,,,,,,,,,,,,test1,,,,,,,,,,,,,,,,,,,,,,,j,0.704625,0,40,40,40,1,trainingaudio/04_kitoti2.wav,trainingaudio/04_kitoti1.wav,2,trainingaudio/04_kitoti1.wav,,,,,,,,,,,,,,,,,,,,,,,,,,,,,,,,
,,,,,,,pngimages/22_egg.png,Jacob Sellers,2013,2021-03-03_10h53.54.611,experiment,2020.1.3,MacIntel,60,,,,,,,,,,,,,,,,test1,,,,,,,,,,,,,,,,,,,,,,,f,0.547715,0,41,41,41,1,trainingaudio/22_kakoki1.wav,trainingaudio/22_kakoki3.wav,2,trainingaudio/22_kakoki3.wav,,,,,,,,,,,,,,,,,,,,,,,,,,,,,,,,
,,,,,,,pngimages/17_cracker.png,Jacob Sellers,2013,2021-03-03_10h53.54.611,experiment,2020.1.3,MacIntel,60,,,,,,,,,,,,,,,,test1,,,,,,,,,,,,,,,,,,,,,,,f,1.172555,0,42,42,42,1,trainingaudio/17_kotako1.wav,trainingaudio/17_kotako3.wav,1,trainingaudio/17_kotako1.wav,,,,,,,,,,,,,,,,,,,,,,,,,,,,,,,,
,,,,,,,pngimages/13_toast.png,Jacob Sellers,2013,2021-03-03_10h53.54.611,experiment,2020.1.3,MacIntel,60,,,,,,,,,,,,,,,,test1,,,,,,,,,,,,,,,,,,,,,,,j,2.302495,0,43,43,43,1,trainingaudio/13_kopopi2.wav,trainingaudio/13_kopopi3.wav,2,trainingaudio/13_kopopi3.wav,,,,,,,,,,,,,,,,,,,,,,,,,,,,,,,,
,,,,,,,pngimages/94_house.png,Jacob Sellers,2013,2021-03-03_10h53.54.611,experiment,2020.1.3,MacIntel,60,,,,,,,,,,,,,,,,test1,,,,,,,,,,,,,,,,,,,,,,,j,0.750505,0,44,44,44,1,trainingaudio/94_kipipi2.wav,trainingaudio/94_kipipi1.wav,2,trainingaudio/94_kipipi1.wav,,,,,,,,,,,,,,,,,,,,,,,,,,,,,,,,
,,,,,,,pngimages/07_suitcase.png,Jacob Sellers,2013,2021-03-03_10h53.54.611,experiment,2020.1.3,MacIntel,60,,,,,,,,,,,,,,,,test1,,,,,,,,,,,,,,,,,,,,,,,j,2.687255,0,45,45,45,1,trainingaudio/07_pitapi1.wav,trainingaudio/07_pitapi3.wav,1,trainingaudio/07_pitapi1.wav,,,,,,,,,,,,,,,,,,,,,,,,,,,,,,,,
,,,,,,,pngimages/10_backpack.png,Jacob Sellers,2013,2021-03-03_10h53.54.611,experiment,2020.1.3,MacIntel,60,,,,,,,,,,,,,,,,test1,,,,,,,,,,,,,,,,,,,,,,,f,1.764025,0,46,46,46,1,trainingaudio/10_tokiti3.wav,trainingaudio/10_tokiti2.wav,2,trainingaudio/10_tokiti2.wav,,,,,,,,,,,,,,,,,,,,,,,,,,,,,,,,
,,,,,,,pngimages/19_burger.png,Jacob Sellers,2013,2021-03-03_10h53.54.611,experiment,2020.1.3,MacIntel,60,,,,,,,,,,,,,,,,test1,,,,,,,,,,,,,,,,,,,,,,,j,0.91571,0,47,47,47,1,trainingaudio/19_papipi3.wav,trainingaudio/19_papipi2.wav,2,trainingaudio/19_papipi2.wav,,,,,,,,,,,,,,,,,,,,,,,,,,,,,,,,
,,,,,,,pngimages/18_donut.png,Jacob Sellers,2013,2021-03-03_10h53.54.611,experiment,2020.1.3,MacIntel,60,,,,,,,,,,,,,,,,test1,,,,,,,,,,,,,,,,,,,,,,,j,1.45153,0,48,48,48,1,trainingaudio/18_popata1.wav,trainingaudio/18_popata3.wav,1,trainingaudio/18_popata1.wav,,,,,,,,,,,,,,,,,,,,,,,,,,,,,,,,
,,,,,,,pngimages/11_compass.png,Jacob Sellers,2013,2021-03-03_10h53.54.611,experiment,2020.1.3,MacIntel,60,,,,,,,,,,,,,,,,test1,,,,,,,,,,,,,,,,,,,,,,,j,4.400815,0,49,49,49,1,trainingaudio/11_tokiko2.wav,trainingaudio/11_tokiko1.wav,1,trainingaudio/11_tokiko2.wav,,,,,,,,,,,,,,,,,,,,,,,,,,,,,,,,
,,,,,,,pngimages/21_cheese.png,Jacob Sellers,2013,2021-03-03_10h53.54.611,experiment,2020.1.3,MacIntel,60,,,,,,,,,,,,,,,,test1,,,,,,,,,,,,,,,,,,,,,,,j,2.233625,0,50,50,50,1,trainingaudio/21_papika2.wav,trainingaudio/21_papika3.wav,1,trainingaudio/21_papika2.wav,,,,,,,,,,,,,,,,,,,,,,,,,,,,,,,,
,,,,,,,pngimages/05_megaphone.png,Jacob Sellers,2013,2021-03-03_10h53.54.611,experiment,2020.1.3,MacIntel,60,,,,,,,,,,,,,,,,test1,,,,,,,,,,,,,,,,,,,,,,,j,0.84552,0,51,51,51,1,trainingaudio/05_titopo1.wav,trainingaudio/05_titopo3.wav,1,trainingaudio/05_titopo1.wav,,,,,,,,,,,,,,,,,,,,,,,,,,,,,,,,
,,,,,,,pngimages/26_pineapple.png,Jacob Sellers,2013,2021-03-03_10h53.54.611,experiment,2020.1.3,MacIntel,60,,,,,,,,,,,,,,,,test1,,,,,,,,,,,,,,,,,,,,,,,j,0.91494,0,52,52,52,1,trainingaudio/26_kapako3.wav,trainingaudio/26_kapako1.wav,1,trainingaudio/26_kapako3.wav,,,,,,,,,,,,,,,,,,,,,,,,,,,,,,,,
,,,,,,,pngimages/23_lemon.png,Jacob Sellers,2013,2021-03-03_10h53.54.611,experiment,2020.1.3,MacIntel,60,,,,,,,,,,,,,,,,test1,,,,,,,,,,,,,,,,,,,,,,,f,1.232795,0,53,53,53,1,trainingaudio/23_patoko2.wav,trainingaudio/23_patoko3.wav,1,trainingaudio/23_patoko2.wav,,,,,,,,,,,,,,,,,,,,,,,,,,,,,,,,
,,,,,,,pngimages/14_coffee.png,Jacob Sellers,2013,2021-03-03_10h53.54.611,experiment,2020.1.3,MacIntel,60,,,,,,,,,,,,,,,,test1,,,,,,,,,,,,,,,,,,,,,,,f,0.35555,0,54,54,54,1,trainingaudio/14_pokoto2.wav,trainingaudio/14_pokoto1.wav,2,trainingaudio/14_pokoto1.wav,,,,,,,,,,,,,,,,,,,,,,,,,,,,,,,,
,,,,,,,pngimages/03_box.png,Jacob Sellers,2013,2021-03-03_10h53.54.611,experiment,2020.1.3,MacIntel,60,,,,,,,,,,,,,,,,test1,,,,,,,,,,,,,,,,,,,,,,,j,0.56992,0,55,55,55,1,trainingaudio/03_kikita1.wav,trainingaudio/03_kikita2.wav,1,trainingaudio/03_kikita1.wav,,,,,,,,,,,,,,,,,,,,,,,,,,,,,,,,
,,,,,,,pngimages/67_laptop.png,Jacob Sellers,2013,2021-03-03_10h53.54.611,experiment,2020.1.3,MacIntel,60,,,,,,,,,,,,,,,,test2,,,,,,,,,,,,,,,,,,,,,,,,,,,,,,novelaudio/67_tokoki3.wav,novelaudio/67_tokoki1.wav,1,,,,f,2.04675,0,0,0,0,1,,,,,,,,,,,,,,,,,,,,,,,
,,,,,,,pngimages/49_calculator.png,Jacob Sellers,2013,2021-03-03_10h53.54.611,experiment,2020.1.3,MacIntel,60,,,,,,,,,,,,,,,,test2,,,,,,,,,,,,,,,,,,,,,,,,,,,,,,novelaudio/49_tatopi2.wav,novelaudio/49_tatopi3.wav,2,,,,j,1.668495,0,1,1,1,1,,,,,,,,,,,,,,,,,,,,,,,
,,,,,,,pngimages/59_umbrella.png,Jacob Sellers,2013,2021-03-03_10h53.54.611,experiment,2020.1.3,MacIntel,60,,,,,,,,,,,,,,,,test2,,,,,,,,,,,,,,,,,,,,,,,,,,,,,,novelaudio/59_tipoko1.wav,novelaudio/59_tipoko3.wav,1,,,,f,3.71012,0,2,2,2,1,,,,,,,,,,,,,,,,,,,,,,,
,,,,,,,pngimages/45_scissors.png,Jacob Sellers,2013,2021-03-03_10h53.54.611,experiment,2020.1.3,MacIntel,60,,,,,,,,,,,,,,,,test2,,,,,,,,,,,,,,,,,,,,,,,,,,,,,,novelaudio/45_totaka1.wav,novelaudio/45_totaka2.wav,1,,,,f,1.36914,0,3,3,3,1,,,,,,,,,,,,,,,,,,,,,,,
,,,,,,,pngimages/35_skillet.png,Jacob Sellers,2013,2021-03-03_10h53.54.611,experiment,2020.1.3,MacIntel,60,,,,,,,,,,,,,,,,test2,,,,,,,,,,,,,,,,,,,,,,,,,,,,,,novelaudio/35_titato1.wav,novelaudio/35_titato2.wav,1,,,,j,3.85855,0,4,4,4,1,,,,,,,,,,,,,,,,,,,,,,,
,,,,,,,pngimages/39_fork.png,Jacob Sellers,2013,2021-03-03_10h53.54.611,experiment,2020.1.3,MacIntel,60,,,,,,,,,,,,,,,,test2,,,,,,,,,,,,,,,,,,,,,,,,,,,,,,novelaudio/39_kotipa1.wav,novelaudio/39_kotipa2.wav,2,,,,j,8.967415,0,5,5,5,1,,,,,,,,,,,,,,,,,,,,,,,
,,,,,,,pngimages/68_heart.png,Jacob Sellers,2013,2021-03-03_10h53.54.611,experiment,2020.1.3,MacIntel,60,,,,,,,,,,,,,,,,test2,,,,,,,,,,,,,,,,,,,,,,,,,,,,,,novelaudio/68_pokopo2.wav,novelaudio/68_pokopo1.wav,2,,,,f,3.49003,0,6,6,6,1,,,,,,,,,,,,,,,,,,,,,,,
,,,,,,,pngimages/74_boat.png,Jacob Sellers,2013,2021-03-03_10h53.54.611,experiment,2020.1.3,MacIntel,60,,,,,,,,,,,,,,,,test2,,,,,,,,,,,,,,,,,,,,,,,,,,,,,,novelaudio/74_tatiko2.wav,novelaudio/74_tatiko1.wav,1,,,,,,0,7,7,7,1,,,,,,,,,,,,,,,,,,,,,,,
,,,,,,,pngimages/75_chicken.png,Jacob Sellers,2013,2021-03-03_10h53.54.611,experiment,2020.1.3,MacIntel,60,,,,,,,,,,,,,,,,test2,,,,,,,,,,,,,,,,,,,,,,,,,,,,,,novelaudio/75_kakita3.wav,novelaudio/75_kakita2.wav,2,,,,f,1.644805,0,8,8,8,1,,,,,,,,,,,,,,,,,,,,,,,
,,,,,,,pngimages/29_cherry.png,Jacob Sellers,2013,2021-03-03_10h53.54.611,experiment,2020.1.3,MacIntel,60,,,,,,,,,,,,,,,,test2,,,,,,,,,,,,,,,,,,,,,,,,,,,,,,novelaudio/29_pipito1.wav,novelaudio/29_pipito3.wav,1,,,,f,2.066115,0,9,9,9,1,,,,,,,,,,,,,,,,,,,,,,,
,,,,,,,pngimages/62_screwdriver.png,Jacob Sellers,2013,2021-03-03_10h53.54.611,experiment,2020.1.3,MacIntel,60,,,,,,,,,,,,,,,,test2,,,,,,,,,,,,,,,,,,,,,,,,,,,,,,novelaudio/62_pitako1.wav,novelaudio/62_pitako2.wav,1,,,,j,3.38961,0,10,10,10,1,,,,,,,,,,,,,,,,,,,,,,,
,,,,,,,pngimages/40_spoon.png,Jacob Sellers,2013,2021-03-03_10h53.54.611,experiment,2020.1.3,MacIntel,60,,,,,,,,,,,,,,,,test2,,,,,,,,,,,,,,,,,,,,,,,,,,,,,,novelaudio/40_kototi1.wav,novelaudio/40_kototi3.wav,2,,,,j,3.699295,0,11,11,11,1,,,,,,,,,,,,,,,,,,,,,,,
,,,,,,,pngimages/52_newspaper.png,Jacob Sellers,2013,2021-03-03_10h53.54.611,experiment,2020.1.3,MacIntel,60,,,,,,,,,,,,,,,,test2,,,,,,,,,,,,,,,,,,,,,,,,,,,,,,novelaudio/52_pakaki2.wav,novelaudio/52_pakaki3.wav,2,,,,f,5.04821,0,12,12,12,1,,,,,,,,,,,,,,,,,,,,,,,
,,,,,,,pngimages/46_paper.png,Jacob Sellers,2013,2021-03-03_10h53.54.611,experiment,2020.1.3,MacIntel,60,,,,,,,,,,,,,,,,test2,,,,,,,,,,,,,,,,,,,,,,,,,,,,,,novelaudio/46_tapiti2.wav,novelaudio/46_tapiti1.wav,1,,,,j,5.053495,0,13,13,13,1,,,,,,,,,,,,,,,,,,,,,,,
,,,,,,,pngimages/78_cow.png,Jacob Sellers,2013,2021-03-03_10h53.54.611,experiment,2020.1.3,MacIntel,60,,,,,,,,,,,,,,,,test2,,,,,,,,,,,,,,,,,,,,,,,,,,,,,,novelaudio/78_kakoka2.wav,novelaudio/78_kakoka1.wav,1,,,,j,2.18718,0,14,14,14,1,,,,,,,,,,,,,,,,,,,,,,,
,,,,,,,pngimages/37_mug.png,Jacob Sellers,2013,2021-03-03_10h53.54.611,experiment,2020.1.3,MacIntel,60,,,,,,,,,,,,,,,,test2,,,,,,,,,,,,,,,,,,,,,,,,,,,,,,novelaudio/37_kokiti2.wav,novelaudio/37_kokiti3.wav,1,,,,f,3.24883,0,15,15,15,1,,,,,,,,,,,,,,,,,,,,,,,
,,,,,,,pngimages/41_piano.png,Jacob Sellers,2013,2021-03-03_10h53.54.611,experiment,2020.1.3,MacIntel,60,,,,,,,,,,,,,,,,test2,,,,,,,,,,,,,,,,,,,,,,,,,,,,,,novelaudio/41_pototo1.wav,novelaudio/41_pototo2.wav,1,,,,j,2.068605,0,16,16,16,1,,,,,,,,,,,,,,,,,,,,,,,
,,,,,,,pngimages/50_ruler.png,Jacob Sellers,2013,2021-03-03_10h53.54.611,experiment,2020.1.3,MacIntel,60,,,,,,,,,,,,,,,,test2,,,,,,,,,,,,,,,,,,,,,,,,,,,,,,novelaudio/50_katoko1.wav,novelaudio/50_katoko2.wav,2,,,,j,4.08478,0,17,17,17,1,,,,,,,,,,,,,,,,,,,,,,,
,,,,,,,pngimages/72_nose.png,Jacob Sellers,2013,2021-03-03_10h53.54.611,experiment,2020.1.3,MacIntel,60,,,,,,,,,,,,,,,,test2,,,,,,,,,,,,,,,,,,,,,,,,,,,,,,novelaudio/72_topata1.wav,novelaudio/72_topata3.wav,1,,,,j,2.839665,0,18,18,18,1,,,,,,,,,,,,,,,,,,,,,,,
,,,,,,,pngimages/64_shovel.png,Jacob Sellers,2013,2021-03-03_10h53.54.611,experiment,2020.1.3,MacIntel,60,,,,,,,,,,,,,,,,test2,,,,,,,,,,,,,,,,,,,,,,,,,,,,,,novelaudio/64_popiti3.wav,novelaudio/64_popiti2.wav,2,,,,f,1.56684,0,19,19,19,1,,,,,,,,,,,,,,,,,,,,,,,
,,,,,,,pngimages/61_key.png,Jacob Sellers,2013,2021-03-03_10h53.54.611,experiment,2020.1.3,MacIntel,60,,,,,,,,,,,,,,,,test2,,,,,,,,,,,,,,,,,,,,,,,,,,,,,,novelaudio/61_pikati1.wav,novelaudio/61_pikati2.wav,1,,,,j,3.217075,0,20,20,20,1,,,,,,,,,,,,,,,,,,,,,,,
,,,,,,,pngimages/48_brush.png,Jacob Sellers,2013,2021-03-03_10h53.54.611,experiment,2020.1.3,MacIntel,60,,,,,,,,,,,,,,,,test2,,,,,,,,,,,,,,,,,,,,,,,,,,,,,,novelaudio/48_pakipa2.wav,novelaudio/48_pakipa3.wav,1,,,,j,1.48477,0,21,21,21,1,,,,,,,,,,,,,,,,,,,,,,,
,,,,,,,pngimages/57_flashlight.png,Jacob Sellers,2013,2021-03-03_10h53.54.611,experiment,2020.1.3,MacIntel,60,,,,,,,,,,,,,,,,test2,,,,,,,,,,,,,,,,,,,,,,,,,,,,,,novelaudio/57_tipipa1.wav,novelaudio/57_tipipa2.wav,1,,,,j,2.959795,0,22,22,22,1,,,,,,,,,,,,,,,,,,,,,,,
,,,,,,,pngimages/32_greenpepper.png,Jacob Sellers,2013,2021-03-03_10h53.54.611,experiment,2020.1.3,MacIntel,60,,,,,,,,,,,,,,,,test2,,,,,,,,,,,,,,,,,,,,,,,,,,,,,,novelaudio/32_kipoto2.wav,novelaudio/32_kipoto1.wav,2,,,,j,1.934825,0,23,23,23,1,,,,,,,,,,,,,,,,,,,,,,,
,,,,,,,pngimages/54_toiletpaper.png,Jacob Sellers,2013,2021-03-03_10h53.54.611,experiment,2020.1.3,MacIntel,60,,,,,,,,,,,,,,,,test2,,,,,,,,,,,,,,,,,,,,,,,,,,,,,,novelaudio/54_kapapa1.wav,novelaudio/54_kapapa2.wav,1,,,,f,5.385915,0,24,24,24,1,,,,,,,,,,,,,,,,,,,,,,,
,,,,,,,pngimages/79_pig.png,Jacob Sellers,2013,2021-03-03_10h53.54.611,experiment,2020.1.3,MacIntel,60,,,,,,,,,,,,,,,,test2,,,,,,,,,,,,,,,,,,,,,,,,,,,,,,novelaudio/79_katapi3.wav,novelaudio/79_katapi1.wav,1,,,,f,1.67026,0,25,25,25,1,,,,,,,,,,,,,,,,,,,,,,,
,,,,,,,pngimages/55_toilet.png,Jacob Sellers,2013,2021-03-03_10h53.54.611,experiment,2020.1.3,MacIntel,60,,,,,,,,,,,,,,,,test2,,,,,,,,,,,,,,,,,,,,,,,,,,,,,,novelaudio/55_pikiki3.wav,novelaudio/55_pikiki1.wav,2,,,,j,0.35317,0,26,26,26,1,,,,,,,,,,,,,,,,,,,,,,,
,,,,,,,pngimages/43_guitar.png,Jacob Sellers,2013,2021-03-03_10h53.54.611,experiment,2020.1.3,MacIntel,60,,,,,,,,,,,,,,,,test2,,,,,,,,,,,,,,,,,,,,,,,,,,,,,,novelaudio/43_potaki2.wav,novelaudio/43_potaki3.wav,2,,,,f,2.26737,0,27,27,27,1,,,,,,,,,,,,,,,,,,,,,,,
,,,,,,,pngimages/53_hammer.png,Jacob Sellers,2013,2021-03-03_10h53.54.611,experiment,2020.1.3,MacIntel,60,,,,,,,,,,,,,,,,test2,,,,,,,,,,,,,,,,,,,,,,,,,,,,,,novelaudio/53_patapo3.wav,novelaudio/53_patapo1.wav,1,,,,j,0.674915,0,28,28,28,1,,,,,,,,,,,,,,,,,,,,,,,
,,,,,,,pngimages/66_safe.png,Jacob Sellers,2013,2021-03-03_10h53.54.611,experiment,2020.1.3,MacIntel,60,,,,,,,,,,,,,,,,test2,,,,,,,,,,,,,,,,,,,,,,,,,,,,,,novelaudio/66_kopipa3.wav,novelaudio/66_kopipa2.wav,2,,,,j,4.283965,0,29,29,29,1,,,,,,,,,,,,,,,,,,,,,,,
,,,,,,,pngimages/36_microwave.png,Jacob Sellers,2013,2021-03-03_10h53.54.611,experiment,2020.1.3,MacIntel,60,,,,,,,,,,,,,,,,test2,,,,,,,,,,,,,,,,,,,,,,,,,,,,,,novelaudio/36_pipapa1.wav,novelaudio/36_pipapa2.wav,1,,,,j,1.635095,0,30,30,30,1,,,,,,,,,,,,,,,,,,,,,,,
,,,,,,,pngimages/81_cat.png,Jacob Sellers,2013,2021-03-03_10h53.54.611,experiment,2020.1.3,MacIntel,60,,,,,,,,,,,,,,,,test2,,,,,,,,,,,,,,,,,,,,,,,,,,,,,,novelaudio/81_kakapa3.wav,novelaudio/81_kakapa1.wav,2,,,,j,1.77724,0,31,31,31,1,,,,,,,,,,,,,,,,,,,,,,,
,,,,,,,pngimages/28_grape.png,Jacob Sellers,2013,2021-03-03_10h53.54.611,experiment,2020.1.3,MacIntel,60,,,,,,,,,,,,,,,,test2,,,,,,,,,,,,,,,,,,,,,,,,,,,,,,novelaudio/28_pipiki2.wav,novelaudio/28_pipiki1.wav,2,,,,j,0.80056,0,32,32,32,1,,,,,,,,,,,,,,,,,,,,,,,
,,,,,,,pngimages/65_wrench.png,Jacob Sellers,2013,2021-03-03_10h53.54.611,experiment,2020.1.3,MacIntel,60,,,,,,,,,,,,,,,,test2,,,,,,,,,,,,,,,,,,,,,,,,,,,,,,novelaudio/65_totipo3.wav,novelaudio/65_totipo2.wav,2,,,,f,1.776415,0,33,33,33,1,,,,,,,,,,,,,,,,,,,,,,,
,,,,,,,pngimages/51_pencil.png,Jacob Sellers,2013,2021-03-03_10h53.54.611,experiment,2020.1.3,MacIntel,60,,,,,,,,,,,,,,,,test2,,,,,,,,,,,,,,,,,,,,,,,,,,,,,,novelaudio/51_tapopa2.wav,novelaudio/51_tapopa3.wav,1,,,,j,0.750565,0,34,34,34,1,,,,,,,,,,,,,,,,,,,,,,,
,,,,,,,pngimages/44_envelope.png,Jacob Sellers,2013,2021-03-03_10h53.54.611,experiment,2020.1.3,MacIntel,60,,,,,,,,,,,,,,,,test2,,,,,,,,,,,,,,,,,,,,,,,,,,,,,,novelaudio/44_pokato3.wav,novelaudio/44_pokato1.wav,2,,,,j,0.334445,0,35,35,35,1,,,,,,,,,,,,,,,,,,,,,,,
,,,,,,,pngimages/70_hand.png,Jacob Sellers,2013,2021-03-03_10h53.54.611,experiment,2020.1.3,MacIntel,60,,,,,,,,,,,,,,,,test2,,,,,,,,,,,,,,,,,,,,,,,,,,,,,,novelaudio/70_kopati1.wav,novelaudio/70_kopati3.wav,2,,,,f,0.946135,0,36,36,36,1,,,,,,,,,,,,,,,,,,,,,,,
,,,,,,,pngimages/31_tomato.png,Jacob Sellers,2013,2021-03-03_10h53.54.611,experiment,2020.1.3,MacIntel,60,,,,,,,,,,,,,,,,test2,,,,,,,,,,,,,,,,,,,,,,,,,,,,,,novelaudio/31_kikopi2.wav,novelaudio/31_kikopi1.wav,2,,,,j,1.66791,0,37,37,37,1,,,,,,,,,,,,,,,,,,,,,,,
,,,,,,,pngimages/69_tooth.png,Jacob Sellers,2013,2021-03-03_10h53.54.611,experiment,2020.1.3,MacIntel,60,,,,,,,,,,,,,,,,test2,,,,,,,,,,,,,,,,,,,,,,,,,,,,,,novelaudio/69_kotota3.wav,novelaudio/69_kotota1.wav,2,,,,j,2.635595,0,38,38,38,1,,,,,,,,,,,,,,,,,,,,,,,
,,,,,,,pngimages/63_chair.png,Jacob Sellers,2013,2021-03-03_10h53.54.611,experiment,2020.1.3,MacIntel,60,,,,,,,,,,,,,,,,test2,,,,,,,,,,,,,,,,,,,,,,,,,,,,,,novelaudio/63_pitapa1.wav,novelaudio/63_pitapa3.wav,1,,,,f,0.704355,0,39,39,39,1,,,,,,,,,,,,,,,,,,,,,,,
,,,,,,,pngimages/42_harp.png,Jacob Sellers,2013,2021-03-03_10h53.54.611,experiment,2020.1.3,MacIntel,60,,,,,,,,,,,,,,,,test2,,,,,,,,,,,,,,,,,,,,,,,,,,,,,,novelaudio/42_tokota3.wav,novelaudio/42_tokota1.wav,2,,,,j,1.259775,0,40,40,40,1,,,,,,,,,,,,,,,,,,,,,,,
,,,,,,,pngimages/56_towel.png,Jacob Sellers,2013,2021-03-03_10h53.54.611,experiment,2020.1.3,MacIntel,60,,,,,,,,,,,,,,,,test2,,,,,,,,,,,,,,,,,,,,,,,,,,,,,,novelaudio/56_pipiko1.wav,novelaudio/56_pipiko2.wav,1,,,,f,2.19036,0,41,41,41,1,,,,,,,,,,,,,,,,,,,,,,,
,,,,,,,pngimages/77_bear.png,Jacob Sellers,2013,2021-03-03_10h53.54.611,experiment,2020.1.3,MacIntel,60,,,,,,,,,,,,,,,,test2,,,,,,,,,,,,,,,,,,,,,,,,,,,,,,novelaudio/77_takopo2.wav,novelaudio/77_takopo3.wav,1,,,,j,1.42303,0,42,42,42,1,,,,,,,,,,,,,,,,,,,,,,,
,,,,,,,pngimages/60_firewood.png,Jacob Sellers,2013,2021-03-03_10h53.54.611,experiment,2020.1.3,MacIntel,60,,,,,,,,,,,,,,,,test2,,,,,,,,,,,,,,,,,,,,,,,,,,,,,,novelaudio/60_pipopa1.wav,novelaudio/60_pipopa2.wav,1,,,,f,2.43758,0,43,43,43,1,,,,,,,,,,,,,,,,,,,,,,,
,,,,,,,pngimages/76_rabbit.png,Jacob Sellers,2013,2021-03-03_10h53.54.611,experiment,2020.1.3,MacIntel,60,,,,,,,,,,,,,,,,test2,,,,,,,,,,,,,,,,,,,,,,,,,,,,,,novelaudio/76_patoti3.wav,novelaudio/76_patoti1.wav,1,,,,j,0.91954,0,44,44,44,1,,,,,,,,,,,,,,,,,,,,,,,
,,,,,,,pngimages/80_dog.png,Jacob Sellers,2013,2021-03-03_10h53.54.611,experiment,2020.1.3,MacIntel,60,,,,,,,,,,,,,,,,test2,,,,,,,,,,,,,,,,,,,,,,,,,,,,,,novelaudio/80_tatato1.wav,novelaudio/80_tatato3.wav,2,,,,j,1.891995,0,45,45,45,1,,,,,,,,,,,,,,,,,,,,,,,
,,,,,,,pngimages/47_notebook.png,Jacob Sellers,2013,2021-03-03_10h53.54.611,experiment,2020.1.3,MacIntel,60,,,,,,,,,,,,,,,,test2,,,,,,,,,,,,,,,,,,,,,,,,,,,,,,novelaudio/47_takiko2.wav,novelaudio/47_takiko1.wav,1,,,,j,3.36837,0,46,46,46,1,,,,,,,,,,,,,,,,,,,,,,,
,,,,,,,pngimages/73_car.png,Jacob Sellers,2013,2021-03-03_10h53.54.611,experiment,2020.1.3,MacIntel,60,,,,,,,,,,,,,,,,test2,,,,,,,,,,,,,,,,,,,,,,,,,,,,,,novelaudio/73_takiti1.wav,novelaudio/73_takiti2.wav,2,,,,f,1.43701,0,47,47,47,1,,,,,,,,,,,,,,,,,,,,,,,
,,,,,,,pngimages/58_nail.png,Jacob Sellers,2013,2021-03-03_10h53.54.611,experiment,2020.1.3,MacIntel,60,,,,,,,,,,,,,,,,test2,,,,,,,,,,,,,,,,,,,,,,,,,,,,,,novelaudio/58_kipoki3.wav,novelaudio/58_kipoki1.wav,2,,,,j,0.739595,0,48,48,48,1,,,,,,,,,,,,,,,,,,,,,,,
,,,,,,,pngimages/71_eye.png,Jacob Sellers,2013,2021-03-03_10h53.54.611,experiment,2020.1.3,MacIntel,60,,,,,,,,,,,,,,,,test2,,,,,,,,,,,,,,,,,,,,,,,,,,,,,,novelaudio/71_kotato2.wav,novelaudio/71_kotato1.wav,2,,,,j,0.42049,0,49,49,49,1,,,,,,,,,,,,,,,,,,,,,,,
,,,,,,,pngimages/34_knife.png,Jacob Sellers,2013,2021-03-03_10h53.54.611,experiment,2020.1.3,MacIntel,60,,,,,,,,,,,,,,,,test2,,,,,,,,,,,,,,,,,,,,,,,,,,,,,,novelaudio/34_kipaki1.wav,novelaudio/34_kipaki2.wav,1,,,,f,2.415295,0,50,50,50,1,,,,,,,,,,,,,,,,,,,,,,,
,,,,,,,pngimages/33_watermelon.png,Jacob Sellers,2013,2021-03-03_10h53.54.611,experiment,2020.1.3,MacIntel,60,,,,,,,,,,,,,,,,test2,,,,,,,,,,,,,,,,,,,,,,,,,,,,,,novelaudio/33_tipoka2.wav,novelaudio/33_tipoka1.wav,2,,,,j,1.700095,0,51,51,51,1,,,,,,,,,,,,,,,,,,,,,,,
,,,,,,,pngimages/30_mushroom.png,Jacob Sellers,2013,2021-03-03_10h53.54.611,experiment,2020.1.3,MacIntel,60,,,,,,,,,,,,,,,,test2,,,,,,,,,,,,,,,,,,,,,,,,,,,,,,novelaudio/30_tikipa1.wav,novelaudio/30_tikipa3.wav,1,,,,j,0.86844,0,52,52,52,1,,,,,,,,,,,,,,,,,,,,,,,
,,,,,,,pngimages/38_plate.png,Jacob Sellers,2013,2021-03-03_10h53.54.611,experiment,2020.1.3,MacIntel,60,,,,,,,,,,,,,,,,test2,,,,,,,,,,,,,,,,,,,,,,,,,,,,,,novelaudio/38_kokiko1.wav,novelaudio/38_kokiko2.wav,2,,,,j,0.403105,0,53,53,53,1,,,,,,,,,,,,,,,,,,,,,,,
,,,,,,,pngimages/65_wrench.png,Jacob Sellers,2013,2021-03-03_10h53.54.611,experiment,2020.1.3,MacIntel,60,,,,,,,,,,,,,,,,test3,,,,,,,,,,,,,,,,,,,,,,,,,,,,,,novelaudio/65_totipo2.wav,novelaudio/65_totipo3.wav,1,,,,,,,,,,,,j,1.101095,0,0,0,0,1,,,,,,,,,,,,,,,
,,,,,,,pngimages/68_heart.png,Jacob Sellers,2013,2021-03-03_10h53.54.611,experiment,2020.1.3,MacIntel,60,,,,,,,,,,,,,,,,test3,,,,,,,,,,,,,,,,,,,,,,,,,,,,,,novelaudio/68_pokopo2.wav,novelaudio/68_pokopo1.wav,2,,,,,,,,,,,,f,1.633155,0,1,1,1,1,,,,,,,,,,,,,,,
,,,,,,,pngimages/49_calculator.png,Jacob Sellers,2013,2021-03-03_10h53.54.611,experiment,2020.1.3,MacIntel,60,,,,,,,,,,,,,,,,test3,,,,,,,,,,,,,,,,,,,,,,,,,,,,,,novelaudio/49_tatopi3.wav,novelaudio/49_tatopi2.wav,1,,,,,,,,,,,,j,1.034655,0,2,2,2,1,,,,,,,,,,,,,,,
,,,,,,,pngimages/45_scissors.png,Jacob Sellers,2013,2021-03-03_10h53.54.611,experiment,2020.1.3,MacIntel,60,,,,,,,,,,,,,,,,test3,,,,,,,,,,,,,,,,,,,,,,,,,,,,,,novelaudio/45_totaka1.wav,novelaudio/45_totaka3.wav,1,,,,,,,,,,,,f,0.585705,0,3,3,3,1,,,,,,,,,,,,,,,
,,,,,,,pngimages/58_nail.png,Jacob Sellers,2013,2021-03-03_10h53.54.611,experiment,2020.1.3,MacIntel,60,,,,,,,,,,,,,,,,test3,,,,,,,,,,,,,,,,,,,,,,,,,,,,,,novelaudio/58_kipoki1.wav,novelaudio/58_kipoki3.wav,1,,,,,,,,,,,,j,1.18697,0,4,4,4,1,,,,,,,,,,,,,,,
,,,,,,,pngimages/31_tomato.png,Jacob Sellers,2013,2021-03-03_10h53.54.611,experiment,2020.1.3,MacIntel,60,,,,,,,,,,,,,,,,test3,,,,,,,,,,,,,,,,,,,,,,,,,,,,,,novelaudio/31_kikopi1.wav,novelaudio/31_kikopi3.wav,1,,,,,,,,,,,,j,0.505725,0,5,5,5,1,,,,,,,,,,,,,,,
,,,,,,,pngimages/46_paper.png,Jacob Sellers,2013,2021-03-03_10h53.54.611,experiment,2020.1.3,MacIntel,60,,,,,,,,,,,,,,,,test3,,,,,,,,,,,,,,,,,,,,,,,,,,,,,,novelaudio/46_tapiti1.wav,novelaudio/46_tapiti2.wav,2,,,,,,,,,,,,f,0.535585,0,6,6,6,1,,,,,,,,,,,,,,,
,,,,,,,pngimages/33_watermelon.png,Jacob Sellers,2013,2021-03-03_10h53.54.611,experiment,2020.1.3,MacIntel,60,,,,,,,,,,,,,,,,test3,,,,,,,,,,,,,,,,,,,,,,,,,,,,,,novelaudio/33_tipoka1.wav,novelaudio/33_tipoka3.wav,1,,,,,,,,,,,,f,0.421485,0,7,7,7,1,,,,,,,,,,,,,,,
,,,,,,,pngimages/29_cherry.png,Jacob Sellers,2013,2021-03-03_10h53.54.611,experiment,2020.1.3,MacIntel,60,,,,,,,,,,,,,,,,test3,,,,,,,,,,,,,,,,,,,,,,,,,,,,,,novelaudio/29_pipito1.wav,novelaudio/29_pipito2.wav,1,,,,,,,,,,,,f,1.598915,0,8,8,8,1,,,,,,,,,,,,,,,
,,,,,,,pngimages/41_piano.png,Jacob Sellers,2013,2021-03-03_10h53.54.611,experiment,2020.1.3,MacIntel,60,,,,,,,,,,,,,,,,test3,,,,,,,,,,,,,,,,,,,,,,,,,,,,,,novelaudio/41_pototo1.wav,novelaudio/41_pototo2.wav,1,,,,,,,,,,,,j,1.08871,0,9,9,9,1,,,,,,,,,,,,,,,
,,,,,,,pngimages/67_laptop.png,Jacob Sellers,2013,2021-03-03_10h53.54.611,experiment,2020.1.3,MacIntel,60,,,,,,,,,,,,,,,,test3,,,,,,,,,,,,,,,,,,,,,,,,,,,,,,novelaudio/67_tokoki1.wav,novelaudio/67_tokoki3.wav,2,,,,,,,,,,,,j,0.28165,0,10,10,10,1,,,,,,,,,,,,,,,
,,,,,,,pngimages/43_guitar.png,Jacob Sellers,2013,2021-03-03_10h53.54.611,experiment,2020.1.3,MacIntel,60,,,,,,,,,,,,,,,,test3,,,,,,,,,,,,,,,,,,,,,,,,,,,,,,novelaudio/43_potaki3.wav,novelaudio/43_potaki2.wav,1,,,,,,,,,,,,j,2.19629,0,11,11,11,1,,,,,,,,,,,,,,,
,,,,,,,pngimages/69_tooth.png,Jacob Sellers,2013,2021-03-03_10h53.54.611,experiment,2020.1.3,MacIntel,60,,,,,,,,,,,,,,,,test3,,,,,,,,,,,,,,,,,,,,,,,,,,,,,,novelaudio/69_kotota2.wav,novelaudio/69_kotota1.wav,2,,,,,,,,,,,,j,0.84692,0,12,12,12,1,,,,,,,,,,,,,,,
,,,,,,,pngimages/79_pig.png,Jacob Sellers,2013,2021-03-03_10h53.54.611,experiment,2020.1.3,MacIntel,60,,,,,,,,,,,,,,,,test3,,,,,,,,,,,,,,,,,,,,,,,,,,,,,,novelaudio/79_katapi3.wav,novelaudio/79_katapi1.wav,1,,,,,,,,,,,,f,4.84646,0,13,13,13,1,,,,,,,,,,,,,,,
,,,,,,,pngimages/44_envelope.png,Jacob Sellers,2013,2021-03-03_10h53.54.611,experiment,2020.1.3,MacIntel,60,,,,,,,,,,,,,,,,test3,,,,,,,,,,,,,,,,,,,,,,,,,,,,,,novelaudio/44_pokato2.wav,novelaudio/44_pokato1.wav,2,,,,,,,,,,,,j,1.74738,0,14,14,14,1,,,,,,,,,,,,,,,
,,,,,,,pngimages/80_dog.png,Jacob Sellers,2013,2021-03-03_10h53.54.611,experiment,2020.1.3,MacIntel,60,,,,,,,,,,,,,,,,test3,,,,,,,,,,,,,,,,,,,,,,,,,,,,,,novelaudio/80_tatato3.wav,novelaudio/80_tatato1.wav,1,,,,,,,,,,,,f,1.446215,0,15,15,15,1,,,,,,,,,,,,,,,
,,,,,,,pngimages/55_toilet.png,Jacob Sellers,2013,2021-03-03_10h53.54.611,experiment,2020.1.3,MacIntel,60,,,,,,,,,,,,,,,,test3,,,,,,,,,,,,,,,,,,,,,,,,,,,,,,novelaudio/55_pikiki1.wav,novelaudio/55_pikiki3.wav,1,,,,,,,,,,,,f,0.32214,0,16,16,16,1,,,,,,,,,,,,,,,
,,,,,,,pngimages/72_nose.png,Jacob Sellers,2013,2021-03-03_10h53.54.611,experiment,2020.1.3,MacIntel,60,,,,,,,,,,,,,,,,test3,,,,,,,,,,,,,,,,,,,,,,,,,,,,,,novelaudio/72_topata3.wav,novelaudio/72_topata1.wav,2,,,,,,,,,,,,j,0.695395,0,17,17,17,1,,,,,,,,,,,,,,,
,,,,,,,pngimages/62_screwdriver.png,Jacob Sellers,2013,2021-03-03_10h53.54.611,experiment,2020.1.3,MacIntel,60,,,,,,,,,,,,,,,,test3,,,,,,,,,,,,,,,,,,,,,,,,,,,,,,novelaudio/62_pitako3.wav,novelaudio/62_pitako1.wav,2,,,,,,,,,,,,j,1.781775,0,18,18,18,1,,,,,,,,,,,,,,,
,,,,,,,pngimages/35_skillet.png,Jacob Sellers,2013,2021-03-03_10h53.54.611,experiment,2020.1.3,MacIntel,60,,,,,,,,,,,,,,,,test3,,,,,,,,,,,,,,,,,,,,,,,,,,,,,,novelaudio/35_titato1.wav,novelaudio/35_titato3.wav,1,,,,,,,,,,,,j,0.464915,0,19,19,19,1,,,,,,,,,,,,,,,
,,,,,,,pngimages/50_ruler.png,Jacob Sellers,2013,2021-03-03_10h53.54.611,experiment,2020.1.3,MacIntel,60,,,,,,,,,,,,,,,,test3,,,,,,,,,,,,,,,,,,,,,,,,,,,,,,novelaudio/50_katoko3.wav,novelaudio/50_katoko2.wav,2,,,,,,,,,,,,j,2.64835,0,20,20,20,1,,,,,,,,,,,,,,,
,,,,,,,pngimages/59_umbrella.png,Jacob Sellers,2013,2021-03-03_10h53.54.611,experiment,2020.1.3,MacIntel,60,,,,,,,,,,,,,,,,test3,,,,,,,,,,,,,,,,,,,,,,,,,,,,,,novelaudio/59_tipoko1.wav,novelaudio/59_tipoko3.wav,1,,,,,,,,,,,,j,2.66374,0,21,21,21,1,,,,,,,,,,,,,,,
,,,,,,,pngimages/47_notebook.png,Jacob Sellers,2013,2021-03-03_10h53.54.611,experiment,2020.1.3,MacIntel,60,,,,,,,,,,,,,,,,test3,,,,,,,,,,,,,,,,,,,,,,,,,,,,,,novelaudio/47_takiko3.wav,novelaudio/47_takiko2.wav,2,,,,,,,,,,,,j,0.76561,0,22,22,22,1,,,,,,,,,,,,,,,
,,,,,,,pngimages/28_grape.png,Jacob Sellers,2013,2021-03-03_10h53.54.611,experiment,2020.1.3,MacIntel,60,,,,,,,,,,,,,,,,test3,,,,,,,,,,,,,,,,,,,,,,,,,,,,,,novelaudio/28_pipiki3.wav,novelaudio/28_pipiki1.wav,2,,,,,,,,,,,,f,0.02062,0,23,23,23,1,,,,,,,,,,,,,,,
,,,,,,,pngimages/64_shovel.png,Jacob Sellers,2013,2021-03-03_10h53.54.611,experiment,2020.1.3,MacIntel,60,,,,,,,,,,,,,,,,test3,,,,,,,,,,,,,,,,,,,,,,,,,,,,,,novelaudio/64_popiti2.wav,novelaudio/64_popiti1.wav,1,,,,,,,,,,,,j,0.69564,0,24,24,24,1,,,,,,,,,,,,,,,
,,,,,,,pngimages/34_knife.png,Jacob Sellers,2013,2021-03-03_10h53.54.611,experiment,2020.1.3,MacIntel,60,,,,,,,,,,,,,,,,test3,,,,,,,,,,,,,,,,,,,,,,,,,,,,,,novelaudio/34_kipaki1.wav,novelaudio/34_kipaki3.wav,1,,,,,,,,,,,,j,1.06922,0,25,25,25,1,,,,,,,,,,,,,,,
,,,,,,,pngimages/48_brush.png,Jacob Sellers,2013,2021-03-03_10h53.54.611,experiment,2020.1.3,MacIntel,60,,,,,,,,,,,,,,,,test3,,,,,,,,,,,,,,,,,,,,,,,,,,,,,,novelaudio/48_pakipa1.wav,novelaudio/48_pakipa2.wav,2,,,,,,,,,,,,j,4.26251,0,26,26,26,1,,,,,,,,,,,,,,,
,,,,,,,pngimages/56_towel.png,Jacob Sellers,2013,2021-03-03_10h53.54.611,experiment,2020.1.3,MacIntel,60,,,,,,,,,,,,,,,,test3,,,,,,,,,,,,,,,,,,,,,,,,,,,,,,novelaudio/56_pipiko3.wav,novelaudio/56_pipiko1.wav,2,,,,,,,,,,,,j,2.04061,0,27,27,27,1,,,,,,,,,,,,,,,
,,,,,,,pngimages/81_cat.png,Jacob Sellers,2013,2021-03-03_10h53.54.611,experiment,2020.1.3,MacIntel,60,,,,,,,,,,,,,,,,test3,,,,,,,,,,,,,,,,,,,,,,,,,,,,,,novelaudio/81_kakapa1.wav,novelaudio/81_kakapa3.wav,1,,,,,,,,,,,,f,0.99844,0,28,28,28,1,,,,,,,,,,,,,,,
,,,,,,,pngimages/32_greenpepper.png,Jacob Sellers,2013,2021-03-03_10h53.54.611,experiment,2020.1.3,MacIntel,60,,,,,,,,,,,,,,,,test3,,,,,,,,,,,,,,,,,,,,,,,,,,,,,,novelaudio/32_kipoto1.wav,novelaudio/32_kipoto3.wav,1,,,,,,,,,,,,f,1.1042,0,29,29,29,1,,,,,,,,,,,,,,,
,,,,,,,pngimages/57_flashlight.png,Jacob Sellers,2013,2021-03-03_10h53.54.611,experiment,2020.1.3,MacIntel,60,,,,,,,,,,,,,,,,test3,,,,,,,,,,,,,,,,,,,,,,,,,,,,,,novelaudio/57_tipipa1.wav,novelaudio/57_tipipa2.wav,1,,,,,,,,,,,,j,1.613175,0,30,30,30,1,,,,,,,,,,,,,,,
,,,,,,,pngimages/78_cow.png,Jacob Sellers,2013,2021-03-03_10h53.54.611,experiment,2020.1.3,MacIntel,60,,,,,,,,,,,,,,,,test3,,,,,,,,,,,,,,,,,,,,,,,,,,,,,,novelaudio/78_kakoka3.wav,novelaudio/78_kakoka2.wav,2,,,,,,,,,,,,f,1.41388,0,31,31,31,1,,,,,,,,,,,,,,,
,,,,,,,pngimages/61_key.png,Jacob Sellers,2013,2021-03-03_10h53.54.611,experiment,2020.1.3,MacIntel,60,,,,,,,,,,,,,,,,test3,,,,,,,,,,,,,,,,,,,,,,,,,,,,,,novelaudio/61_pikati2.wav,novelaudio/61_pikati1.wav,2,,,,,,,,,,,,j,0.999105,0,32,32,32,1,,,,,,,,,,,,,,,
,,,,,,,pngimages/37_mug.png,Jacob Sellers,2013,2021-03-03_10h53.54.611,experiment,2020.1.3,MacIntel,60,,,,,,,,,,,,,,,,test3,,,,,,,,,,,,,,,,,,,,,,,,,,,,,,novelaudio/37_kokiti3.wav,novelaudio/37_kokiti2.wav,2,,,,,,,,,,,,j,1.979145,0,33,33,33,1,,,,,,,,,,,,,,,
,,,,,,,pngimages/39_fork.png,Jacob Sellers,2013,2021-03-03_10h53.54.611,experiment,2020.1.3,MacIntel,60,,,,,,,,,,,,,,,,test3,,,,,,,,,,,,,,,,,,,,,,,,,,,,,,novelaudio/39_kotipa3.wav,novelaudio/39_kotipa2.wav,2,,,,,,,,,,,,j,1.633365,0,34,34,34,1,,,,,,,,,,,,,,,
,,,,,,,pngimages/51_pencil.png,Jacob Sellers,2013,2021-03-03_10h53.54.611,experiment,2020.1.3,MacIntel,60,,,,,,,,,,,,,,,,test3,,,,,,,,,,,,,,,,,,,,,,,,,,,,,,novelaudio/51_tapopa1.wav,novelaudio/51_tapopa2.wav,2,,,,,,,,,,,,j,0.504905,0,35,35,35,1,,,,,,,,,,,,,,,
,,,,,,,pngimages/36_microwave.png,Jacob Sellers,2013,2021-03-03_10h53.54.611,experiment,2020.1.3,MacIntel,60,,,,,,,,,,,,,,,,test3,,,,,,,,,,,,,,,,,,,,,,,,,,,,,,novelaudio/36_pipapa1.wav,novelaudio/36_pipapa3.wav,1,,,,,,,,,,,,f,3.03848,0,36,36,36,1,,,,,,,,,,,,,,,
,,,,,,,pngimages/53_hammer.png,Jacob Sellers,2013,2021-03-03_10h53.54.611,experiment,2020.1.3,MacIntel,60,,,,,,,,,,,,,,,,test3,,,,,,,,,,,,,,,,,,,,,,,,,,,,,,novelaudio/53_patapo2.wav,novelaudio/53_patapo3.wav,2,,,,,,,,,,,,j,1.978815,0,37,37,37,1,,,,,,,,,,,,,,,
,,,,,,,pngimages/38_plate.png,Jacob Sellers,2013,2021-03-03_10h53.54.611,experiment,2020.1.3,MacIntel,60,,,,,,,,,,,,,,,,test3,,,,,,,,,,,,,,,,,,,,,,,,,,,,,,novelaudio/38_kokiko1.wav,novelaudio/38_kokiko2.wav,2,,,,,,,,,,,,j,0.16923,0,38,38,38,1,,,,,,,,,,,,,,,
,,,,,,,pngimages/74_boat.png,Jacob Sellers,2013,2021-03-03_10h53.54.611,experiment,2020.1.3,MacIntel,60,,,,,,,,,,,,,,,,test3,,,,,,,,,,,,,,,,,,,,,,,,,,,,,,novelaudio/74_tatiko2.wav,novelaudio/74_tatiko1.wav,1,,,,,,,,,,,,j,1.163265,0,39,39,39,1,,,,,,,,,,,,,,,
,,,,,,,pngimages/63_chair.png,Jacob Sellers,2013,2021-03-03_10h53.54.611,experiment,2020.1.3,MacIntel,60,,,,,,,,,,,,,,,,test3,,,,,,,,,,,,,,,,,,,,,,,,,,,,,,novelaudio/63_pitapa2.wav,novelaudio/63_pitapa1.wav,2,,,,,,,,,,,,f,0.948335,0,40,40,40,1,,,,,,,,,,,,,,,
,,,,,,,pngimages/77_bear.png,Jacob Sellers,2013,2021-03-03_10h53.54.611,experiment,2020.1.3,MacIntel,60,,,,,,,,,,,,,,,,test3,,,,,,,,,,,,,,,,,,,,,,,,,,,,,,novelaudio/77_takopo3.wav,novelaudio/77_takopo2.wav,2,,,,,,,,,,,,j,1.295865,0,41,41,41,1,,,,,,,,,,,,,,,
,,,,,,,pngimages/52_newspaper.png,Jacob Sellers,2013,2021-03-03_10h53.54.611,experiment,2020.1.3,MacIntel,60,,,,,,,,,,,,,,,,test3,,,,,,,,,,,,,,,,,,,,,,,,,,,,,,novelaudio/52_pakaki3.wav,novelaudio/52_pakaki2.wav,1,,,,,,,,,,,,j,2.995415,0,42,42,42,1,,,,,,,,,,,,,,,
,,,,,,,pngimages/30_mushroom.png,Jacob Sellers,2013,2021-03-03_10h53.54.611,experiment,2020.1.3,MacIntel,60,,,,,,,,,,,,,,,,test3,,,,,,,,,,,,,,,,,,,,,,,,,,,,,,novelaudio/30_tikipa1.wav,novelaudio/30_tikipa3.wav,1,,,,,,,,,,,,j,2.21605,0,43,43,43,1,,,,,,,,,,,,,,,
,,,,,,,pngimages/70_hand.png,Jacob Sellers,2013,2021-03-03_10h53.54.611,experiment,2020.1.3,MacIntel,60,,,,,,,,,,,,,,,,test3,,,,,,,,,,,,,,,,,,,,,,,,,,,,,,novelaudio/70_kopati2.wav,novelaudio/70_kopati3.wav,2,,,,,,,,,,,,f,2.39998,0,44,44,44,1,,,,,,,,,,,,,,,
,,,,,,,pngimages/60_firewood.png,Jacob Sellers,2013,2021-03-03_10h53.54.611,experiment,2020.1.3,MacIntel,60,,,,,,,,,,,,,,,,test3,,,,,,,,,,,,,,,,,,,,,,,,,,,,,,novelaudio/60_pipopa1.wav,novelaudio/60_pipopa2.wav,1,,,,,,,,,,,,f,2.648025,0,45,45,45,1,,,,,,,,,,,,,,,
,,,,,,,pngimages/75_chicken.png,Jacob Sellers,2013,2021-03-03_10h53.54.611,experiment,2020.1.3,MacIntel,60,,,,,,,,,,,,,,,,test3,,,,,,,,,,,,,,,,,,,,,,,,,,,,,,novelaudio/75_kakita3.wav,novelaudio/75_kakita2.wav,2,,,,,,,,,,,,f,3.98233,0,46,46,46,1,,,,,,,,,,,,,,,
,,,,,,,pngimages/54_toiletpaper.png,Jacob Sellers,2013,2021-03-03_10h53.54.611,experiment,2020.1.3,MacIntel,60,,,,,,,,,,,,,,,,test3,,,,,,,,,,,,,,,,,,,,,,,,,,,,,,novelaudio/54_kapapa3.wav,novelaudio/54_kapapa1.wav,2,,,,,,,,,,,,j,2.316205,0,47,47,47,1,,,,,,,,,,,,,,,
,,,,,,,pngimages/71_eye.png,Jacob Sellers,2013,2021-03-03_10h53.54.611,experiment,2020.1.3,MacIntel,60,,,,,,,,,,,,,,,,test3,,,,,,,,,,,,,,,,,,,,,,,,,,,,,,novelaudio/71_kotato2.wav,novelaudio/71_kotato1.wav,2,,,,,,,,,,,,j,2.96518,0,48,48,48,1,,,,,,,,,,,,,,,
,,,,,,,pngimages/42_harp.png,Jacob Sellers,2013,2021-03-03_10h53.54.611,experiment,2020.1.3,MacIntel,60,,,,,,,,,,,,,,,,test3,,,,,,,,,,,,,,,,,,,,,,,,,,,,,,novelaudio/42_tokota1.wav,novelaudio/42_tokota2.wav,1,,,,,,,,,,,,j,2.48773,0,49,49,49,1,,,,,,,,,,,,,,,
,,,,,,,pngimages/66_safe.png,Jacob Sellers,2013,2021-03-03_10h53.54.611,experiment,2020.1.3,MacIntel,60,,,,,,,,,,,,,,,,test3,,,,,,,,,,,,,,,,,,,,,,,,,,,,,,novelaudio/66_kopipa2.wav,novelaudio/66_kopipa3.wav,1,,,,,,,,,,,,j,0.962965,0,50,50,50,1,,,,,,,,,,,,,,,
,,,,,,,pngimages/73_car.png,Jacob Sellers,2013,2021-03-03_10h53.54.611,experiment,2020.1.3,MacIntel,60,,,,,,,,,,,,,,,,test3,,,,,,,,,,,,,,,,,,,,,,,,,,,,,,novelaudio/73_takiti1.wav,novelaudio/73_takiti2.wav,2,,,,,,,,,,,,j,1.28267,0,51,51,51,1,,,,,,,,,,,,,,,
,,,,,,,pngimages/40_spoon.png,Jacob Sellers,2013,2021-03-03_10h53.54.611,experiment,2020.1.3,MacIntel,60,,,,,,,,,,,,,,,,test3,,,,,,,,,,,,,,,,,,,,,,,,,,,,,,novelaudio/40_kototi1.wav,novelaudio/40_kototi3.wav,2,,,,,,,,,,,,j,0.96346,0,52,52,52,1,,,,,,,,,,,,,,,
,,,,,,,pngimages/76_rabbit.png,Jacob Sellers,2013,2021-03-03_10h53.54.611,experiment,2020.1.3,MacIntel,60,,,,,,,,,,,,,,,,test3,,,,,,,,,,,,,,,,,,,,,,,,,,,,,,novelaudio/76_patoti3.wav,novelaudio/76_patoti1.wav,1,,,,,,,,,,,,j,1.982065,0,53,53,53,1,,,,,,,,,,,,,,,
,,,,,,,,Jacob Sellers,2013,2021-03-03_10h53.54.611,experiment,2020.1.3,MacIntel,60,,,,,,,,,,,,,,,,postTest,,,,,,,,,,,,,,,,,,,,,,,,,,,,,,,,,,,,,,,,,,,,,,,,,,,space,12.34422,f,0.20458,0,0,0,0,1,postTest/82_tipiko1.wav,postTest/82_tipiko1.wav,postTest/82_tipiko3.wav,audioA,,
,,,,,,,,Jacob Sellers,2013,2021-03-03_10h53.54.611,experiment,2020.1.3,MacIntel,60,,,,,,,,,,,,,,,,postTest,,,,,,,,,,,,,,,,,,,,,,,,,,,,,,,,,,,,,,,,,,,,,,,,,,,,,f,0.099155,0,1,1,1,1,postTest/83_pitita3.wav,postTest/83_pitita3.wav,postTest/83_pitita2.wav,audioA,,
,,,,,,,,Jacob Sellers,2013,2021-03-03_10h53.54.611,experiment,2020.1.3,MacIntel,60,,,,,,,,,,,,,,,,postTest,,,,,,,,,,,,,,,,,,,,,,,,,,,,,,,,,,,,,,,,,,,,,,,,,,,,,j,1.26722,0,2,2,2,1,postTest/84_pitoka3.wav,postTest/84_pitoka1.wav,postTest/84_pitoka1.wav,audioB,,
,,,,,,,,Jacob Sellers,2013,2021-03-03_10h53.54.611,experiment,2020.1.3,MacIntel,60,,,,,,,,,,,,,,,,postTest,,,,,,,,,,,,,,,,,,,,,,,,,,,,,,,,,,,,,,,,,,,,,,,,,,,,,f,0.56689,0,3,3,3,1,postTest/85_kipata2.wav,postTest/85_kipata2.wav,postTest/85_kipata3.wav,audioA,,
,,,,,,,,Jacob Sellers,2013,2021-03-03_10h53.54.611,experiment,2020.1.3,MacIntel,60,,,,,,,,,,,,,,,,postTest,,,,,,,,,,,,,,,,,,,,,,,,,,,,,,,,,,,,,,,,,,,,,,,,,,,,,j,0.41829,0,4,4,4,1,postTest/86_totipa2.wav,postTest/86_totipa1.wav,postTest/86_totipa1.wav,audioB,,
,,,,,,,,Jacob Sellers,2013,2021-03-03_10h53.54.611,experiment,2020.1.3,MacIntel,60,,,,,,,,,,,,,,,,postTest,,,,,,,,,,,,,,,,,,,,,,,,,,,,,,,,,,,,,,,,,,,,,,,,,,,,,j,0.352895,0,5,5,5,1,postTest/87_kopoko1.wav,postTest/87_kopoko3.wav,postTest/87_kopoko3.wav,audioB,,
,,,,,,,,Jacob Sellers,2013,2021-03-03_10h53.54.611,experiment,2020.1.3,MacIntel,60,,,,,,,,,,,,,,,,postTest,,,,,,,,,,,,,,,,,,,,,,,,,,,,,,,,,,,,,,,,,,,,,,,,,,,,,f,0.25951,0,6,6,6,1,postTest/88_pokota2.wav,postTest/88_pokota2.wav,postTest/88_pokota1.wav,audioA,,
,,,,,,,,Jacob Sellers,2013,2021-03-03_10h53.54.611,experiment,2020.1.3,MacIntel,60,,,,,,,,,,,,,,,,postTest,,,,,,,,,,,,,,,,,,,,,,,,,,,,,,,,,,,,,,,,,,,,,,,,,,,,,j,0.28457,0,7,7,7,1,postTest/89_totako3.wav,postTest/89_totako2.wav,postTest/89_totako2.wav,audioB,,
,,,,,,,,Jacob Sellers,2013,2021-03-03_10h53.54.611,experiment,2020.1.3,MacIntel,60,,,,,,,,,,,,,,,,postTest,,,,,,,,,,,,,,,,,,,,,,,,,,,,,,,,,,,,,,,,,,,,,,,,,,,,,j,0.292845,0,8,8,8,1,postTest/90_papiki2.wav,postTest/90_papiki3.wav,postTest/90_papiki3.wav,audioB,,
,,,,,,,,Jacob Sellers,2013,2021-03-03_10h53.54.611,experiment,2020.1.3,MacIntel,60,,,,,,,,,,,,,,,,postTest,,,,,,,,,,,,,,,,,,,,,,,,,,,,,,,,,,,,,,,,,,,,,,,,,,,,,f,0.502225,0,9,9,9,1,postTest/91_papipo1.wav,postTest/91_papipo1.wav,postTest/91_papipo2.wav,audioA,,
,,,,,,,,Jacob Sellers,2013,2021-03-03_10h53.54.611,experiment,2020.1.3,MacIntel,60,,,,,,,,,,,,,,,,postTest,,,,,,,,,,,,,,,,,,,,,,,,,,,,,,,,,,,,,,,,,,,,,,,,,,,,,j,0.2683,0,10,10,10,1,postTest/92_katoki1.wav,postTest/92_katoki2.wav,postTest/92_katoki2.wav,audioB,,
,,,,,,,,Jacob Sellers,2013,2021-03-03_10h53.54.611,experiment,2020.1.3,MacIntel,60,,,,,,,,,,,,,,,,postTest,,,,,,,,,,,,,,,,,,,,,,,,,,,,,,,,,,,,,,,,,,,,,,,,,,,,,f,0.434055,0,11,11,11,1,postTest/93_pakopa3.wav,postTest/93_pakopa3.wav,postTest/93_pakopa1.wav,audioA,,
,,,,,,,,Jacob Sellers,2013,2021-03-03_10h53.54.611,experiment,2020.1.3,MacIntel,60,,,,,,,,,,,,,,,,,,,,,,,,,,,,,,,,,,,,,,,,,,,,,,,,,,,,,,,,,,,,,,,,,,,,,,,,,,,,,,,,space,2.807525
