skipTrain1Type.keys,skipTrain1Type.rt,train1Words.thisRepN,train1Words.thisTrialN,train1Words.thisN,train1Words.thisIndex,train1Words.ran,audio,imageLoc,participant,session,ID Number,date,expName,psychopyVersion,OS,frameRate,train1QuestAdvance.keys,train1QuestAdvance.rt,break_loop.thisRepN,break_loop.thisTrialN,break_loop.thisN,break_loop.thisIndex,break_loop.ran,train1Response.keys,train1Response.rt,train1Questions.thisRepN,train1Questions.thisTrialN,train1Questions.thisN,train1Questions.thisIndex,train1Questions.ran,audioTrue,imageTrue,currentPhase,imageFalse,truePos,falsePos,trial1phases.thisRepN,trial1phases.thisTrialN,trial1phases.thisN,trial1phases.thisIndex,trial1phases.ran,condFiles,testFiles,alltrain1.thisRepN,alltrain1.thisTrialN,alltrain1.thisN,alltrain1.thisIndex,alltrain1.ran,condFile,numWords,skipTest1Instr.keys,skipTest1Instr.rt,key_resp.keys,key_resp.rt,test1Response.keys,test1Response.rt,test1Loop.thisRepN,test1Loop.thisTrialN,test1Loop.thisN,test1Loop.thisIndex,test1Loop.ran,firstAudio,secondAudio,whichAudio,feedback,skipTest2Instr.keys,skipTest2Instr.rt,key_resp_2.keys,key_resp_2.rt,test2Response.keys,test2Response.rt,test2Loop.thisRepN,test2Loop.thisTrialN,test2Loop.thisN,test2Loop.thisIndex,test2Loop.ran,skipTest3Instr.keys,skipTest3Instr.rt,key_resp_3.keys,key_resp_3.rt,test3Response.keys,test3Response.rt,test3Loop.thisRepN,test3Loop.thisTrialN,test3Loop.thisN,test3Loop.thisIndex,test3Loop.ran,skipPostTestInstr.keys,skipPostTestInstr.rt,postTestResponse.keys,postTestResponse.rt,postTestLoop.thisRepN,postTestLoop.thisTrialN,postTestLoop.thisN,postTestLoop.thisIndex,postTestLoop.ran,audioA,audioX,audioB,correctLabel,quit.keys,quit.rt
return,2.83076,0,0,0,0,1,trainingaudio/06_titoka2.wav,pngimages/06_tent.png,sarah,001,3456,2020-09-17_17h35.34.220,experiment,2020.1.3,Win32,60,,,,,,,,,,,,,,,,,,,,,,,,,,,,,,,,,,,,,,,,,,,,,,,,,,,,,,,,,,,,,,,,,,,,,,,,,,,,,,,,,,,,,,
,,,,,,,,,sarah,001,3456,2020-09-17_17h35.34.220,experiment,2020.1.3,Win32,60,space,2.32817,0,0,0,0,1,,,,,,,,,,,,,,,,,,,,,,,,,,,,,,,,,,,,,,,,,,,,,,,,,,,,,,,,,,,,,,,,,,,,,,,,,,,,,,,
,,,,,,,,,sarah,001,3456,2020-09-17_17h35.34.220,experiment,2020.1.3,Win32,60,,,,,,,,f,0.275695,0,0,0,0,1,trainingaudio/19_papipi2.wav,pngimages/19_burger.png,train1P1,pngimages/06_tent.png,-0.5,0.5,,,,,,,,,,,,,,,,,,,,,,,,,,,,,,,,,,,,,,,,,,,,,,,,,,,,,,,,,,,,,,,,,,
,,,,,,,,,sarah,001,3456,2020-09-17_17h35.34.220,experiment,2020.1.3,Win32,60,,,,,,,,,,,,,,,,,,,,,0,0,0,0,1,oiaConditions/train1P1Block1.xlsx,oiaConditions/train1P1Block1Test.xlsx,,,,,,,,,,,,,,,,,,,,,,,,,,,,,,,,,,,,,,,,,,,,,,,,,,,,,,,,,,,
,,0,0,0,0,1,trainingaudio/23_patoko2.wav,pngimages/23_lemon.png,sarah,001,3456,2020-09-17_17h35.34.220,experiment,2020.1.3,Win32,60,,,,,,,,,,,,,,,,,,,,,,,,,,,,,,,,,,,,,,,,,,,,,,,,,,,,,,,,,,,,,,,,,,,,,,,,,,,,,,,,,,,,,,
,,,,,,,,,sarah,001,3456,2020-09-17_17h35.34.220,experiment,2020.1.3,Win32,60,,,0,0,0,0,1,,,,,,,,,,,,,,,,,,,,,,,,,,,,,,,,,,,,,,,,,,,,,,,,,,,,,,,,,,,,,,,,,,,,,,,,,,,,,,,
,,,,,,,,,sarah,001,3456,2020-09-17_17h35.34.220,experiment,2020.1.3,Win32,60,,,,,,,,f,2.205875,0,0,0,0,1,trainingaudio/23_patoko2.wav,pngimages/23_lemon.png,train1P1,pngimages/22_egg.png,0.5,-0.5,,,,,,,,,,,,,,,,,,,,,,,,,,,,,,,,,,,,,,,,,,,,,,,,,,,,,,,,,,,,,,,,,,
,,,,,,,,,sarah,001,3456,2020-09-17_17h35.34.220,experiment,2020.1.3,Win32,60,,,,,,,,,,,,,,,,,,,,,0,1,1,1,1,oiaConditions/train1P1Block2.xlsx,oiaConditions/train1P1Block2Test.xlsx,,,,,,,,,,,,,,,,,,,,,,,,,,,,,,,,,,,,,,,,,,,,,,,,,,,,,,,,,,,
,,0,0,0,0,1,trainingaudio/25_tapapi3.wav,pngimages/25_apple.png,sarah,001,3456,2020-09-17_17h35.34.220,experiment,2020.1.3,Win32,60,,,,,,,,,,,,,,,,,,,,,,,,,,,,,,,,,,,,,,,,,,,,,,,,,,,,,,,,,,,,,,,,,,,,,,,,,,,,,,,,,,,,,,
,,,,,,,,,sarah,001,3456,2020-09-17_17h35.34.220,experiment,2020.1.3,Win32,60,,,0,0,0,0,1,,,,,,,,,,,,,,,,,,,,,,,,,,,,,,,,,,,,,,,,,,,,,,,,,,,,,,,,,,,,,,,,,,,,,,,,,,,,,,,
,,,,,,,,,sarah,001,3456,2020-09-17_17h35.34.220,experiment,2020.1.3,Win32,60,,,,,,,,j,0.90081,0,0,0,0,1,trainingaudio/26_kapako3.wav,pngimages/26_pineapple.png,train1P1,pngimages/25_apple.png,0.5,-0.5,,,,,,,,,,,,,,,,,,,,,,,,,,,,,,,,,,,,,,,,,,,,,,,,,,,,,,,,,,,,,,,,,,
,,,,,,,,,sarah,001,3456,2020-09-17_17h35.34.220,experiment,2020.1.3,Win32,60,,,,,,,,,,,,,,,,,,,,,0,2,2,2,1,oiaConditions/train1P1Block3.xlsx,oiaConditions/train1P1Block3Test.xlsx,,,,,,,,,,,,,,,,,,,,,,,,,,,,,,,,,,,,,,,,,,,,,,,,,,,,,,,,,,,
,,0,0,0,0,1,trainingaudio/17_kotako1.wav,pngimages/17_cracker.png,sarah,001,3456,2020-09-17_17h35.34.220,experiment,2020.1.3,Win32,60,,,,,,,,,,,,,,,,,,,,,,,,,,,,,,,,,,,,,,,,,,,,,,,,,,,,,,,,,,,,,,,,,,,,,,,,,,,,,,,,,,,,,,
,,,,,,,,,sarah,001,3456,2020-09-17_17h35.34.220,experiment,2020.1.3,Win32,60,,,0,0,0,0,1,,,,,,,,,,,,,,,,,,,,,,,,,,,,,,,,,,,,,,,,,,,,,,,,,,,,,,,,,,,,,,,,,,,,,,,,,,,,,,,
,,,,,,,,,sarah,001,3456,2020-09-17_17h35.34.220,experiment,2020.1.3,Win32,60,,,,,,,,j,0.036235,0,0,0,0,1,trainingaudio/18_popata1.wav,pngimages/18_donut.png,train1P1,pngimages/17_cracker.png,0.5,-0.5,,,,,,,,,,,,,,,,,,,,,,,,,,,,,,,,,,,,,,,,,,,,,,,,,,,,,,,,,,,,,,,,,,
,,,,,,,,,sarah,001,3456,2020-09-17_17h35.34.220,experiment,2020.1.3,Win32,60,,,,,,,,,,,,,,,,,,,,,0,3,3,3,1,oiaConditions/train1P1Block4.xlsx,oiaConditions/train1P1Block4Test.xlsx,,,,,,,,,,,,,,,,,,,,,,,,,,,,,,,,,,,,,,,,,,,,,,,,,,,,,,,,,,,
,,0,0,0,0,1,trainingaudio/09_tipata1.wav,pngimages/09_plane.png,sarah,001,3456,2020-09-17_17h35.34.220,experiment,2020.1.3,Win32,60,,,,,,,,,,,,,,,,,,,,,,,,,,,,,,,,,,,,,,,,,,,,,,,,,,,,,,,,,,,,,,,,,,,,,,,,,,,,,,,,,,,,,,
,,,,,,,,,sarah,001,3456,2020-09-17_17h35.34.220,experiment,2020.1.3,Win32,60,,,0,0,0,0,1,,,,,,,,,,,,,,,,,,,,,,,,,,,,,,,,,,,,,,,,,,,,,,,,,,,,,,,,,,,,,,,,,,,,,,,,,,,,,,,
,,,,,,,,,sarah,001,3456,2020-09-17_17h35.34.220,experiment,2020.1.3,Win32,60,,,,,,,,j,0.62033,0,0,0,0,1,trainingaudio/24_takopa2.wav,pngimages/24_banana.png,train1P1,pngimages/09_plane.png,0.5,-0.5,,,,,,,,,,,,,,,,,,,,,,,,,,,,,,,,,,,,,,,,,,,,,,,,,,,,,,,,,,,,,,,,,,
,,,,,,,,,sarah,001,3456,2020-09-17_17h35.34.220,experiment,2020.1.3,Win32,60,,,,,,,,,,,,,,,,,,,,,0,4,4,4,1,oiaConditions/train1P1Block5.xlsx,oiaConditions/train1P1Block5Test.xlsx,,,,,,,,,,,,,,,,,,,,,,,,,,,,,,,,,,,,,,,,,,,,,,,,,,,,,,,,,,,
,,0,0,0,0,1,trainingaudio/08_tipako3.wav,pngimages/08_bell.png,sarah,001,3456,2020-09-17_17h35.34.220,experiment,2020.1.3,Win32,60,,,,,,,,,,,,,,,,,,,,,,,,,,,,,,,,,,,,,,,,,,,,,,,,,,,,,,,,,,,,,,,,,,,,,,,,,,,,,,,,,,,,,,
,,,,,,,,,sarah,001,3456,2020-09-17_17h35.34.220,experiment,2020.1.3,Win32,60,,,0,0,0,0,1,,,,,,,,,,,,,,,,,,,,,,,,,,,,,,,,,,,,,,,,,,,,,,,,,,,,,,,,,,,,,,,,,,,,,,,,,,,,,,,
,,,,,,,,,sarah,001,3456,2020-09-17_17h35.34.220,experiment,2020.1.3,Win32,60,,,,,,,,f,0.368325,0,0,0,0,1,trainingaudio/08_tipako3.wav,pngimages/08_bell.png,train1P1,pngimages/03_box.png,-0.5,0.5,,,,,,,,,,,,,,,,,,,,,,,,,,,,,,,,,,,,,,,,,,,,,,,,,,,,,,,,,,,,,,,,,,
,,,,,,,,,sarah,001,3456,2020-09-17_17h35.34.220,experiment,2020.1.3,Win32,60,,,,,,,,,,,,,,,,,,,,,0,5,5,5,1,oiaConditions/train1P1Block6.xlsx,oiaConditions/train1P1Block6Test.xlsx,,,,,,,,,,,,,,,,,,,,,,,,,,,,,,,,,,,,,,,,,,,,,,,,,,,,,,,,,,,
,,0,0,0,0,1,trainingaudio/10_tokiti1.wav,pngimages/10_backpack.png,sarah,001,3456,2020-09-17_17h35.34.220,experiment,2020.1.3,Win32,60,,,,,,,,,,,,,,,,,,,,,,,,,,,,,,,,,,,,,,,,,,,,,,,,,,,,,,,,,,,,,,,,,,,,,,,,,,,,,,,,,,,,,,
,,,,,,,,,sarah,001,3456,2020-09-17_17h35.34.220,experiment,2020.1.3,Win32,60,,,0,0,0,0,1,,,,,,,,,,,,,,,,,,,,,,,,,,,,,,,,,,,,,,,,,,,,,,,,,,,,,,,,,,,,,,,,,,,,,,,,,,,,,,,
,,,,,,,,,sarah,001,3456,2020-09-17_17h35.34.220,experiment,2020.1.3,Win32,60,,,,,,,,j,0.26936,0,0,0,0,1,trainingaudio/13_kopopi1.wav,pngimages/13_toast.png,train1P1,pngimages/10_backpack.png,0.5,-0.5,,,,,,,,,,,,,,,,,,,,,,,,,,,,,,,,,,,,,,,,,,,,,,,,,,,,,,,,,,,,,,,,,,
,,,,,,,,,sarah,001,3456,2020-09-17_17h35.34.220,experiment,2020.1.3,Win32,60,,,,,,,,,,,,,,,,,,,,,0,6,6,6,1,oiaConditions/train1P1Block7.xlsx,oiaConditions/train1P1Block7Test.xlsx,,,,,,,,,,,,,,,,,,,,,,,,,,,,,,,,,,,,,,,,,,,,,,,,,,,,,,,,,,,
,,0,0,0,0,1,trainingaudio/04_kitoti2.wav,pngimages/04_ladder.png,sarah,001,3456,2020-09-17_17h35.34.220,experiment,2020.1.3,Win32,60,,,,,,,,,,,,,,,,,,,,,,,,,,,,,,,,,,,,,,,,,,,,,,,,,,,,,,,,,,,,,,,,,,,,,,,,,,,,,,,,,,,,,,
,,,,,,,,,sarah,001,3456,2020-09-17_17h35.34.220,experiment,2020.1.3,Win32,60,,,0,0,0,0,1,,,,,,,,,,,,,,,,,,,,,,,,,,,,,,,,,,,,,,,,,,,,,,,,,,,,,,,,,,,,,,,,,,,,,,,,,,,,,,,
,,,,,,,,,sarah,001,3456,2020-09-17_17h35.34.220,experiment,2020.1.3,Win32,60,,,,,,,,f,0.326625,0,0,0,0,1,trainingaudio/12_pokika1.wav,pngimages/12_pie.png,train1P1,pngimages/04_ladder.png,-0.5,0.5,,,,,,,,,,,,,,,,,,,,,,,,,,,,,,,,,,,,,,,,,,,,,,,,,,,,,,,,,,,,,,,,,,
,,,,,,,,,sarah,001,3456,2020-09-17_17h35.34.220,experiment,2020.1.3,Win32,60,,,,,,,,,,,,,,,,,,,,,0,7,7,7,1,oiaConditions/train1P1Block8.xlsx,oiaConditions/train1P1Block8Test.xlsx,,,,,,,,,,,,,,,,,,,,,,,,,,,,,,,,,,,,,,,,,,,,,,,,,,,,,,,,,,,
,,0,0,0,0,1,trainingaudio/07_pitapi1.wav,pngimages/07_suitcase.png,sarah,001,3456,2020-09-17_17h35.34.220,experiment,2020.1.3,Win32,60,,,,,,,,,,,,,,,,,,,,,,,,,,,,,,,,,,,,,,,,,,,,,,,,,,,,,,,,,,,,,,,,,,,,,,,,,,,,,,,,,,,,,,
,,,,,,,,,sarah,001,3456,2020-09-17_17h35.34.220,experiment,2020.1.3,Win32,60,,,0,0,0,0,1,,,,,,,,,,,,,,,,,,,,,,,,,,,,,,,,,,,,,,,,,,,,,,,,,,,,,,,,,,,,,,,,,,,,,,,,,,,,,,,
,,,,,,,,,sarah,001,3456,2020-09-17_17h35.34.220,experiment,2020.1.3,Win32,60,,,,,,,,f,1.100385,0,0,0,0,1,trainingaudio/02_pitito3.wav,pngimages/02_pallet.png,train1P1,pngimages/07_suitcase.png,-0.5,0.5,,,,,,,,,,,,,,,,,,,,,,,,,,,,,,,,,,,,,,,,,,,,,,,,,,,,,,,,,,,,,,,,,,
,,,,,,,,,sarah,001,3456,2020-09-17_17h35.34.220,experiment,2020.1.3,Win32,60,,,,,,,,,,,,,,,,,,,,,0,8,8,8,1,oiaConditions/train1P1Block9.xlsx,oiaConditions/train1P1Block9Test.xlsx,,,,,,,,,,,,,,,,,,,,,,,,,,,,,,,,,,,,,,,,,,,,,,,,,,,,,,,,,,,
,,0,0,0,0,1,trainingaudio/01_kitipi1.wav,pngimages/01_gift.png,sarah,001,3456,2020-09-17_17h35.34.220,experiment,2020.1.3,Win32,60,,,,,,,,,,,,,,,,,,,,,,,,,,,,,,,,,,,,,,,,,,,,,,,,,,,,,,,,,,,,,,,,,,,,,,,,,,,,,,,,,,,,,,
,,,,,,,,,sarah,001,3456,2020-09-17_17h35.34.220,experiment,2020.1.3,Win32,60,,,0,0,0,0,1,,,,,,,,,,,,,,,,,,,,,,,,,,,,,,,,,,,,,,,,,,,,,,,,,,,,,,,,,,,,,,,,,,,,,,,,,,,,,,,
,,,,,,,,,sarah,001,3456,2020-09-17_17h35.34.220,experiment,2020.1.3,Win32,60,,,,,,,,f,1.04982,0,0,0,0,1,trainingaudio/01_kitipi1.wav,pngimages/01_gift.png,train1P1,pngimages/21_cheese.png,-0.5,0.5,,,,,,,,,,,,,,,,,,,,,,,,,,,,,,,,,,,,,,,,,,,,,,,,,,,,,,,,,,,,,,,,,,
,,,,,,,,,sarah,001,3456,2020-09-17_17h35.34.220,experiment,2020.1.3,Win32,60,,,,,,,,,,,,,,,,,,,,,0,9,9,9,1,oiaConditions/train1P1Block10.xlsx,oiaConditions/train1P1Block10Test.xlsx,,,,,,,,,,,,,,,,,,,,,,,,,,,,,,,,,,,,,,,,,,,,,,,,,,,,,,,,,,,
,,0,0,0,0,1,trainingaudio/27_pakapa1.wav,pngimages/27_kiwi.png,sarah,001,3456,2020-09-17_17h35.34.220,experiment,2020.1.3,Win32,60,,,,,,,,,,,,,,,,,,,,,,,,,,,,,,,,,,,,,,,,,,,,,,,,,,,,,,,,,,,,,,,,,,,,,,,,,,,,,,,,,,,,,,
,,,,,,,,,sarah,001,3456,2020-09-17_17h35.34.220,experiment,2020.1.3,Win32,60,,,0,0,0,0,1,,,,,,,,,,,,,,,,,,,,,,,,,,,,,,,,,,,,,,,,,,,,,,,,,,,,,,,,,,,,,,,,,,,,,,,,,,,,,,,
,,,,,,,,,sarah,001,3456,2020-09-17_17h35.34.220,experiment,2020.1.3,Win32,60,,,,,,,,j,0.98495,0,0,0,0,1,trainingaudio/27_pakapa1.wav,pngimages/27_kiwi.png,train1P1,pngimages/15_barrel.png,0.5,-0.5,,,,,,,,,,,,,,,,,,,,,,,,,,,,,,,,,,,,,,,,,,,,,,,,,,,,,,,,,,,,,,,,,,
,,,,,,,,,sarah,001,3456,2020-09-17_17h35.34.220,experiment,2020.1.3,Win32,60,,,,,,,,,,,,,,,,,,,,,0,10,10,10,1,oiaConditions/train1P1Block11.xlsx,oiaConditions/train1P1Block11Test.xlsx,,,,,,,,,,,,,,,,,,,,,,,,,,,,,,,,,,,,,,,,,,,,,,,,,,,,,,,,,,,
,,0,0,0,0,1,trainingaudio/05_titopo2.wav,pngimages/05_megaphone.png,sarah,001,3456,2020-09-17_17h35.34.220,experiment,2020.1.3,Win32,60,,,,,,,,,,,,,,,,,,,,,,,,,,,,,,,,,,,,,,,,,,,,,,,,,,,,,,,,,,,,,,,,,,,,,,,,,,,,,,,,,,,,,,
,,,,,,,,,sarah,001,3456,2020-09-17_17h35.34.220,experiment,2020.1.3,Win32,60,,,0,0,0,0,1,,,,,,,,,,,,,,,,,,,,,,,,,,,,,,,,,,,,,,,,,,,,,,,,,,,,,,,,,,,,,,,,,,,,,,,,,,,,,,,
,,,,,,,,,sarah,001,3456,2020-09-17_17h35.34.220,experiment,2020.1.3,Win32,60,,,,,,,,j,1.41779,0,0,0,0,1,trainingaudio/16_kokapi1.wav,pngimages/16_icecream.png,train1P1,pngimages/05_megaphone.png,0.5,-0.5,,,,,,,,,,,,,,,,,,,,,,,,,,,,,,,,,,,,,,,,,,,,,,,,,,,,,,,,,,,,,,,,,,
,,,,,,,,,sarah,001,3456,2020-09-17_17h35.34.220,experiment,2020.1.3,Win32,60,,,,,,,,,,,,,,,,,,,,,0,11,11,11,1,oiaConditions/train1P1Block12.xlsx,oiaConditions/train1P1Block12Test.xlsx,,,,,,,,,,,,,,,,,,,,,,,,,,,,,,,,,,,,,,,,,,,,,,,,,,,,,,,,,,,
,,0,0,0,0,1,trainingaudio/11_tokiko1.wav,pngimages/11_compass.png,sarah,001,3456,2020-09-17_17h35.34.220,experiment,2020.1.3,Win32,60,,,,,,,,,,,,,,,,,,,,,,,,,,,,,,,,,,,,,,,,,,,,,,,,,,,,,,,,,,,,,,,,,,,,,,,,,,,,,,,,,,,,,,
,,,,,,,,,sarah,001,3456,2020-09-17_17h35.34.220,experiment,2020.1.3,Win32,60,,,0,0,0,0,1,,,,,,,,,,,,,,,,,,,,,,,,,,,,,,,,,,,,,,,,,,,,,,,,,,,,,,,,,,,,,,,,,,,,,,,,,,,,,,,
,,,,,,,,,sarah,001,3456,2020-09-17_17h35.34.220,experiment,2020.1.3,Win32,60,,,,,,,,j,0.362175,0,0,0,0,1,trainingaudio/20_tatito3.wav,pngimages/20_pizza.png,train1P1,pngimages/11_compass.png,0.5,-0.5,,,,,,,,,,,,,,,,,,,,,,,,,,,,,,,,,,,,,,,,,,,,,,,,,,,,,,,,,,,,,,,,,,
,,,,,,,,,sarah,001,3456,2020-09-17_17h35.34.220,experiment,2020.1.3,Win32,60,,,,,,,,,,,,,,,,,,,,,0,12,12,12,1,oiaConditions/train1P1Block13.xlsx,oiaConditions/train1P1Block13Test.xlsx,,,,,,,,,,,,,,,,,,,,,,,,,,,,,,,,,,,,,,,,,,,,,,,,,,,,,,,,,,,
,,0,0,0,0,1,trainingaudio/14_pokoto1.wav,pngimages/14_coffee.png,sarah,001,3456,2020-09-17_17h35.34.220,experiment,2020.1.3,Win32,60,,,,,,,,,,,,,,,,,,,,,,,,,,,,,,,,,,,,,,,,,,,,,,,,,,,,,,,,,,,,,,,,,,,,,,,,,,,,,,,,,,,,,,
,,,,,,,,,sarah,001,3456,2020-09-17_17h35.34.220,experiment,2020.1.3,Win32,60,,,0,0,0,0,1,,,,,,,,,,,,,,,,,,,,,,,,,,,,,,,,,,,,,,,,,,,,,,,,,,,,,,,,,,,,,,,,,,,,,,,,,,,,,,,
,,,,,,,,,sarah,001,3456,2020-09-17_17h35.34.220,experiment,2020.1.3,Win32,60,,,,,,,,j,0.487435,0,0,0,0,1,trainingaudio/14_pokoto1.wav,pngimages/14_coffee.png,train1P1,pngimages/94_house.png,0.5,-0.5,,,,,,,,,,,,,,,,,,,,,,,,,,,,,,,,,,,,,,,,,,,,,,,,,,,,,,,,,,,,,,,,,,
,,,,,,,,,sarah,001,3456,2020-09-17_17h35.34.220,experiment,2020.1.3,Win32,60,,,,,,,,,,,,,,,,,,,,,,,,,,,,0,0,0,0,1,oiaConditions/train1P1LoopCondition.xlsx,two,,,,,,,,,,,,,,,,,,,,,,,,,,,,,,,,,,,,,,,,,,,,,,,,,,,,
return,1.820905,0,0,0,0,1,trainingaudio/09_tipata1.wav,pngimages/09_plane.png,sarah,001,3456,2020-09-17_17h35.34.220,experiment,2020.1.3,Win32,60,,,,,,,,,,,,,,,,,,,,,,,,,,,,,,,,,,,,,,,,,,,,,,,,,,,,,,,,,,,,,,,,,,,,,,,,,,,,,,,,,,,,,,
,,0,1,1,1,1,trainingaudio/15_kopota1.wav,pngimages/15_barrel.png,sarah,001,3456,2020-09-17_17h35.34.220,experiment,2020.1.3,Win32,60,,,,,,,,,,,,,,,,,,,,,,,,,,,,,,,,,,,,,,,,,,,,,,,,,,,,,,,,,,,,,,,,,,,,,,,,,,,,,,,,,,,,,,
,,0,2,2,2,1,trainingaudio/14_pokoto1.wav,pngimages/14_coffee.png,sarah,001,3456,2020-09-17_17h35.34.220,experiment,2020.1.3,Win32,60,,,,,,,,,,,,,,,,,,,,,,,,,,,,,,,,,,,,,,,,,,,,,,,,,,,,,,,,,,,,,,,,,,,,,,,,,,,,,,,,,,,,,,
,,,,,,,,,sarah,001,3456,2020-09-17_17h35.34.220,experiment,2020.1.3,Win32,60,return,2.116225,0,0,0,0,1,,,,,,,,,,,,,,,,,,,,,,,,,,,,,,,,,,,,,,,,,,,,,,,,,,,,,,,,,,,,,,,,,,,,,,,,,,,,,,,
,,,,,,,,,sarah,001,3456,2020-09-17_17h35.34.220,experiment,2020.1.3,Win32,60,,,,,,,,f,0.518575,0,0,0,0,1,trainingaudio/09_tipata1.wav,pngimages/09_plane.png,train1P2,pngimages/19_burger.png,0.5,-0.5,,,,,,,,,,,,,,,,,,,,,,,,,,,,,,,,,,,,,,,,,,,,,,,,,,,,,,,,,,,,,,,,,,
,,,,,,,,,sarah,001,3456,2020-09-17_17h35.34.220,experiment,2020.1.3,Win32,60,,,,,,,,j,0.58855,0,1,1,1,1,trainingaudio/15_kopota1.wav,pngimages/15_barrel.png,train1P2,pngimages/14_coffee.png,-0.5,0.5,,,,,,,,,,,,,,,,,,,,,,,,,,,,,,,,,,,,,,,,,,,,,,,,,,,,,,,,,,,,,,,,,,
,,,,,,,,,sarah,001,3456,2020-09-17_17h35.34.220,experiment,2020.1.3,Win32,60,,,,,,,,,,,,,,,,,,,,,0,0,0,0,1,oiaConditions/train1P2Block1.xlsx,oiaConditions/train1P2Block1Test.xlsx,,,,,,,,,,,,,,,,,,,,,,,,,,,,,,,,,,,,,,,,,,,,,,,,,,,,,,,,,,,
,,0,0,0,0,1,trainingaudio/16_kokapi1.wav,pngimages/16_icecream.png,sarah,001,3456,2020-09-17_17h35.34.220,experiment,2020.1.3,Win32,60,,,,,,,,,,,,,,,,,,,,,,,,,,,,,,,,,,,,,,,,,,,,,,,,,,,,,,,,,,,,,,,,,,,,,,,,,,,,,,,,,,,,,,
,,0,1,1,1,1,trainingaudio/26_kapako3.wav,pngimages/26_pineapple.png,sarah,001,3456,2020-09-17_17h35.34.220,experiment,2020.1.3,Win32,60,,,,,,,,,,,,,,,,,,,,,,,,,,,,,,,,,,,,,,,,,,,,,,,,,,,,,,,,,,,,,,,,,,,,,,,,,,,,,,,,,,,,,,
,,0,2,2,2,1,trainingaudio/17_kotako1.wav,pngimages/17_cracker.png,sarah,001,3456,2020-09-17_17h35.34.220,experiment,2020.1.3,Win32,60,,,,,,,,,,,,,,,,,,,,,,,,,,,,,,,,,,,,,,,,,,,,,,,,,,,,,,,,,,,,,,,,,,,,,,,,,,,,,,,,,,,,,,
,,,,,,,,,sarah,001,3456,2020-09-17_17h35.34.220,experiment,2020.1.3,Win32,60,,,0,0,0,0,1,,,,,,,,,,,,,,,,,,,,,,,,,,,,,,,,,,,,,,,,,,,,,,,,,,,,,,,,,,,,,,,,,,,,,,,,,,,,,,,
,,,,,,,,,sarah,001,3456,2020-09-17_17h35.34.220,experiment,2020.1.3,Win32,60,,,,,,,,f,2.122685,0,0,0,0,1,trainingaudio/11_tokiko1.wav,pngimages/11_compass.png,train1P2,pngimages/26_pineapple.png,-0.5,0.5,,,,,,,,,,,,,,,,,,,,,,,,,,,,,,,,,,,,,,,,,,,,,,,,,,,,,,,,,,,,,,,,,,
,,,,,,,,,sarah,001,3456,2020-09-17_17h35.34.220,experiment,2020.1.3,Win32,60,,,,,,,,f,0.8225,0,1,1,1,1,trainingaudio/17_kotako1.wav,pngimages/17_cracker.png,train1P2,pngimages/16_icecream.png,-0.5,0.5,,,,,,,,,,,,,,,,,,,,,,,,,,,,,,,,,,,,,,,,,,,,,,,,,,,,,,,,,,,,,,,,,,
,,,,,,,,,sarah,001,3456,2020-09-17_17h35.34.220,experiment,2020.1.3,Win32,60,,,,,,,,,,,,,,,,,,,,,0,1,1,1,1,oiaConditions/train1P2Block2.xlsx,oiaConditions/train1P2Block2Test.xlsx,,,,,,,,,,,,,,,,,,,,,,,,,,,,,,,,,,,,,,,,,,,,,,,,,,,,,,,,,,,
,,0,0,0,0,1,trainingaudio/08_tipako3.wav,pngimages/08_bell.png,sarah,001,3456,2020-09-17_17h35.34.220,experiment,2020.1.3,Win32,60,,,,,,,,,,,,,,,,,,,,,,,,,,,,,,,,,,,,,,,,,,,,,,,,,,,,,,,,,,,,,,,,,,,,,,,,,,,,,,,,,,,,,,
,,0,1,1,1,1,trainingaudio/07_pitapi1.wav,pngimages/07_suitcase.png,sarah,001,3456,2020-09-17_17h35.34.220,experiment,2020.1.3,Win32,60,,,,,,,,,,,,,,,,,,,,,,,,,,,,,,,,,,,,,,,,,,,,,,,,,,,,,,,,,,,,,,,,,,,,,,,,,,,,,,,,,,,,,,
,,0,2,2,2,1,trainingaudio/03_kikita1.wav,pngimages/03_box.png,sarah,001,3456,2020-09-17_17h35.34.220,experiment,2020.1.3,Win32,60,,,,,,,,,,,,,,,,,,,,,,,,,,,,,,,,,,,,,,,,,,,,,,,,,,,,,,,,,,,,,,,,,,,,,,,,,,,,,,,,,,,,,,
,,,,,,,,,sarah,001,3456,2020-09-17_17h35.34.220,experiment,2020.1.3,Win32,60,,,0,0,0,0,1,,,,,,,,,,,,,,,,,,,,,,,,,,,,,,,,,,,,,,,,,,,,,,,,,,,,,,,,,,,,,,,,,,,,,,,,,,,,,,,
,,,,,,,,,sarah,001,3456,2020-09-17_17h35.34.220,experiment,2020.1.3,Win32,60,,,,,,,,f,0.50163,0,0,0,0,1,trainingaudio/07_pitapi1.wav,pngimages/07_suitcase.png,train1P2,pngimages/08_bell.png,0.5,-0.5,,,,,,,,,,,,,,,,,,,,,,,,,,,,,,,,,,,,,,,,,,,,,,,,,,,,,,,,,,,,,,,,,,
,,,,,,,,,sarah,001,3456,2020-09-17_17h35.34.220,experiment,2020.1.3,Win32,60,,,,,,,,f,0.401845,0,1,1,1,1,trainingaudio/03_kikita1.wav,pngimages/03_box.png,train1P2,pngimages/01_gift.png,-0.5,0.5,,,,,,,,,,,,,,,,,,,,,,,,,,,,,,,,,,,,,,,,,,,,,,,,,,,,,,,,,,,,,,,,,,
,,,,,,,,,sarah,001,3456,2020-09-17_17h35.34.220,experiment,2020.1.3,Win32,60,,,,,,,,,,,,,,,,,,,,,0,2,2,2,1,oiaConditions/train1P2Block3.xlsx,oiaConditions/train1P2Block3Test.xlsx,,,,,,,,,,,,,,,,,,,,,,,,,,,,,,,,,,,,,,,,,,,,,,,,,,,,,,,,,,,
,,0,0,0,0,1,trainingaudio/12_pokika1.wav,pngimages/12_pie.png,sarah,001,3456,2020-09-17_17h35.34.220,experiment,2020.1.3,Win32,60,,,,,,,,,,,,,,,,,,,,,,,,,,,,,,,,,,,,,,,,,,,,,,,,,,,,,,,,,,,,,,,,,,,,,,,,,,,,,,,,,,,,,,
,,0,1,1,1,1,trainingaudio/22_kakoki2.wav,pngimages/22_egg.png,sarah,001,3456,2020-09-17_17h35.34.220,experiment,2020.1.3,Win32,60,,,,,,,,,,,,,,,,,,,,,,,,,,,,,,,,,,,,,,,,,,,,,,,,,,,,,,,,,,,,,,,,,,,,,,,,,,,,,,,,,,,,,,
,,0,2,2,2,1,trainingaudio/04_kitoti2.wav,pngimages/04_ladder.png,sarah,001,3456,2020-09-17_17h35.34.220,experiment,2020.1.3,Win32,60,,,,,,,,,,,,,,,,,,,,,,,,,,,,,,,,,,,,,,,,,,,,,,,,,,,,,,,,,,,,,,,,,,,,,,,,,,,,,,,,,,,,,,
,,,,,,,,,sarah,001,3456,2020-09-17_17h35.34.220,experiment,2020.1.3,Win32,60,,,0,0,0,0,1,,,,,,,,,,,,,,,,,,,,,,,,,,,,,,,,,,,,,,,,,,,,,,,,,,,,,,,,,,,,,,,,,,,,,,,,,,,,,,,
,,,,,,,,,sarah,001,3456,2020-09-17_17h35.34.220,experiment,2020.1.3,Win32,60,,,,,,,,f,5.224935,0,0,0,0,1,trainingaudio/04_kitoti2.wav,pngimages/04_ladder.png,train1P2,pngimages/12_pie.png,0.5,-0.5,,,,,,,,,,,,,,,,,,,,,,,,,,,,,,,,,,,,,,,,,,,,,,,,,,,,,,,,,,,,,,,,,,
,,,,,,,,,sarah,001,3456,2020-09-17_17h35.34.220,experiment,2020.1.3,Win32,60,,,,,,,,f,0.30072,0,1,1,1,1,trainingaudio/22_kakoki2.wav,pngimages/22_egg.png,train1P2,pngimages/02_pallet.png,-0.5,0.5,,,,,,,,,,,,,,,,,,,,,,,,,,,,,,,,,,,,,,,,,,,,,,,,,,,,,,,,,,,,,,,,,,
,,,,,,,,,sarah,001,3456,2020-09-17_17h35.34.220,experiment,2020.1.3,Win32,60,,,,,,,,,,,,,,,,,,,,,0,3,3,3,1,oiaConditions/train1P2Block4.xlsx,oiaConditions/train1P2Block4Test.xlsx,,,,,,,,,,,,,,,,,,,,,,,,,,,,,,,,,,,,,,,,,,,,,,,,,,,,,,,,,,,
,,0,0,0,0,1,trainingaudio/23_patoko2.wav,pngimages/23_lemon.png,sarah,001,3456,2020-09-17_17h35.34.220,experiment,2020.1.3,Win32,60,,,,,,,,,,,,,,,,,,,,,,,,,,,,,,,,,,,,,,,,,,,,,,,,,,,,,,,,,,,,,,,,,,,,,,,,,,,,,,,,,,,,,,
,,0,1,1,1,1,trainingaudio/10_tokiti1.wav,pngimages/10_backpack.png,sarah,001,3456,2020-09-17_17h35.34.220,experiment,2020.1.3,Win32,60,,,,,,,,,,,,,,,,,,,,,,,,,,,,,,,,,,,,,,,,,,,,,,,,,,,,,,,,,,,,,,,,,,,,,,,,,,,,,,,,,,,,,,
,,0,2,2,2,1,trainingaudio/20_tatito3.wav,pngimages/20_pizza.png,sarah,001,3456,2020-09-17_17h35.34.220,experiment,2020.1.3,Win32,60,,,,,,,,,,,,,,,,,,,,,,,,,,,,,,,,,,,,,,,,,,,,,,,,,,,,,,,,,,,,,,,,,,,,,,,,,,,,,,,,,,,,,,
,,,,,,,,,sarah,001,3456,2020-09-17_17h35.34.220,experiment,2020.1.3,Win32,60,,,0,0,0,0,1,,,,,,,,,,,,,,,,,,,,,,,,,,,,,,,,,,,,,,,,,,,,,,,,,,,,,,,,,,,,,,,,,,,,,,,,,,,,,,,
,,,,,,,,,sarah,001,3456,2020-09-17_17h35.34.220,experiment,2020.1.3,Win32,60,,,,,,,,f,6.19107,0,0,0,0,1,trainingaudio/10_tokiti1.wav,pngimages/10_backpack.png,train1P2,pngimages/23_lemon.png,0.5,-0.5,,,,,,,,,,,,,,,,,,,,,,,,,,,,,,,,,,,,,,,,,,,,,,,,,,,,,,,,,,,,,,,,,,
,,,,,,,,,sarah,001,3456,2020-09-17_17h35.34.220,experiment,2020.1.3,Win32,60,,,,,,,,f,0.784065,0,1,1,1,1,trainingaudio/25_tapapi3.wav,pngimages/25_apple.png,train1P2,pngimages/20_pizza.png,-0.5,0.5,,,,,,,,,,,,,,,,,,,,,,,,,,,,,,,,,,,,,,,,,,,,,,,,,,,,,,,,,,,,,,,,,,
,,,,,,,,,sarah,001,3456,2020-09-17_17h35.34.220,experiment,2020.1.3,Win32,60,,,,,,,,,,,,,,,,,,,,,0,4,4,4,1,oiaConditions/train1P2Block5.xlsx,oiaConditions/train1P2Block5Test.xlsx,,,,,,,,,,,,,,,,,,,,,,,,,,,,,,,,,,,,,,,,,,,,,,,,,,,,,,,,,,,
,,0,0,0,0,1,trainingaudio/18_popata1.wav,pngimages/18_donut.png,sarah,001,3456,2020-09-17_17h35.34.220,experiment,2020.1.3,Win32,60,,,,,,,,,,,,,,,,,,,,,,,,,,,,,,,,,,,,,,,,,,,,,,,,,,,,,,,,,,,,,,,,,,,,,,,,,,,,,,,,,,,,,,
,,0,1,1,1,1,trainingaudio/06_titoka2.wav,pngimages/06_tent.png,sarah,001,3456,2020-09-17_17h35.34.220,experiment,2020.1.3,Win32,60,,,,,,,,,,,,,,,,,,,,,,,,,,,,,,,,,,,,,,,,,,,,,,,,,,,,,,,,,,,,,,,,,,,,,,,,,,,,,,,,,,,,,,
,,0,2,2,2,1,trainingaudio/21_papika2.wav,pngimages/21_cheese.png,sarah,001,3456,2020-09-17_17h35.34.220,experiment,2020.1.3,Win32,60,,,,,,,,,,,,,,,,,,,,,,,,,,,,,,,,,,,,,,,,,,,,,,,,,,,,,,,,,,,,,,,,,,,,,,,,,,,,,,,,,,,,,,
,,,,,,,,,sarah,001,3456,2020-09-17_17h35.34.220,experiment,2020.1.3,Win32,60,,,0,0,0,0,1,,,,,,,,,,,,,,,,,,,,,,,,,,,,,,,,,,,,,,,,,,,,,,,,,,,,,,,,,,,,,,,,,,,,,,,,,,,,,,,
,,,,,,,,,sarah,001,3456,2020-09-17_17h35.34.220,experiment,2020.1.3,Win32,60,,,,,,,,f,2.535265,0,0,0,0,1,trainingaudio/21_papika2.wav,pngimages/21_cheese.png,train1P2,pngimages/18_donut.png,-0.5,0.5,,,,,,,,,,,,,,,,,,,,,,,,,,,,,,,,,,,,,,,,,,,,,,,,,,,,,,,,,,,,,,,,,,
,,,,,,,,,sarah,001,3456,2020-09-17_17h35.34.220,experiment,2020.1.3,Win32,60,,,,,,,,f,0.62165,0,1,1,1,1,trainingaudio/06_titoka2.wav,pngimages/06_tent.png,train1P2,pngimages/27_kiwi.png,-0.5,0.5,,,,,,,,,,,,,,,,,,,,,,,,,,,,,,,,,,,,,,,,,,,,,,,,,,,,,,,,,,,,,,,,,,
,,,,,,,,,sarah,001,3456,2020-09-17_17h35.34.220,experiment,2020.1.3,Win32,60,,,,,,,,,,,,,,,,,,,,,0,5,5,5,1,oiaConditions/train1P2Block6.xlsx,oiaConditions/train1P2Block6Test.xlsx,,,,,,,,,,,,,,,,,,,,,,,,,,,,,,,,,,,,,,,,,,,,,,,,,,,,,,,,,,,
,,0,0,0,0,1,trainingaudio/24_takopa2.wav,pngimages/24_banana.png,sarah,001,3456,2020-09-17_17h35.34.220,experiment,2020.1.3,Win32,60,,,,,,,,,,,,,,,,,,,,,,,,,,,,,,,,,,,,,,,,,,,,,,,,,,,,,,,,,,,,,,,,,,,,,,,,,,,,,,,,,,,,,,
,,0,1,1,1,1,trainingaudio/13_kopopi1.wav,pngimages/13_toast.png,sarah,001,3456,2020-09-17_17h35.34.220,experiment,2020.1.3,Win32,60,,,,,,,,,,,,,,,,,,,,,,,,,,,,,,,,,,,,,,,,,,,,,,,,,,,,,,,,,,,,,,,,,,,,,,,,,,,,,,,,,,,,,,
,,0,2,2,2,1,trainingaudio/05_titopo2.wav,pngimages/05_megaphone.png,sarah,001,3456,2020-09-17_17h35.34.220,experiment,2020.1.3,Win32,60,,,,,,,,,,,,,,,,,,,,,,,,,,,,,,,,,,,,,,,,,,,,,,,,,,,,,,,,,,,,,,,,,,,,,,,,,,,,,,,,,,,,,,
,,,,,,,,,sarah,001,3456,2020-09-17_17h35.34.220,experiment,2020.1.3,Win32,60,,,0,0,0,0,1,,,,,,,,,,,,,,,,,,,,,,,,,,,,,,,,,,,,,,,,,,,,,,,,,,,,,,,,,,,,,,,,,,,,,,,,,,,,,,,
,,,,,,,,,sarah,001,3456,2020-09-17_17h35.34.220,experiment,2020.1.3,Win32,60,,,,,,,,j,0.618575,0,0,0,0,1,trainingaudio/94_kipipi1.wav,pngimages/94_house.png,train1P2,pngimages/24_banana.png,0.5,-0.5,,,,,,,,,,,,,,,,,,,,,,,,,,,,,,,,,,,,,,,,,,,,,,,,,,,,,,,,,,,,,,,,,,
,,,,,,,,,sarah,001,3456,2020-09-17_17h35.34.220,experiment,2020.1.3,Win32,60,,,,,,,,f,0.235585,0,1,1,1,1,trainingaudio/05_titopo2.wav,pngimages/05_megaphone.png,train1P2,pngimages/13_toast.png,-0.5,0.5,,,,,,,,,,,,,,,,,,,,,,,,,,,,,,,,,,,,,,,,,,,,,,,,,,,,,,,,,,,,,,,,,,
,,,,,,,,pngimages/04_ladder.png,sarah,001,3456,2020-09-17_17h35.34.220,experiment,2020.1.3,Win32,60,,,,,,,,,,,,,,,,,test1,,,,,,,,,,,,,,,,,,return,5.938575,return,4.70899,f,0.75926,0,0,0,0,1,trainingaudio/04_kitoti1.wav,trainingaudio/04_kitoti2.wav,2,trainingaudio/04_kitoti2.wav,,,,,,,,,,,,,,,,,,,,,,,,,,,,,,,,,,,,,
,,,,,,,,pngimages/12_pie.png,sarah,001,3456,2020-09-17_17h35.34.220,experiment,2020.1.3,Win32,60,,,,,,,,,,,,,,,,,test1,,,,,,,,,,,,,,,,,,,,,,j,0.51317,0,1,1,1,1,trainingaudio/12_pokika2.wav,trainingaudio/12_pokika1.wav,2,trainingaudio/12_pokika1.wav,,,,,,,,,,,,,,,,,,,,,,,,,,,,,,,,,,,,,
,,,,,,,,pngimages/02_pallet.png,sarah,001,3456,2020-09-17_17h35.34.220,experiment,2020.1.3,Win32,60,,,,,,,,,,,,,,,,,test1,,,,,,,,,,,,,,,,,,,,,,j,0.854005,0,2,2,2,1,trainingaudio/02_pitito3.wav,trainingaudio/02_pitito1.wav,1,trainingaudio/02_pitito3.wav,,,,,,,,,,,,,,,,,,,,,,,,,,,,,,,,,,,,,
,,,,,,,,pngimages/20_pizza.png,sarah,001,3456,2020-09-17_17h35.34.220,experiment,2020.1.3,Win32,60,,,,,,,,,,,,,,,,,test1,,,,,,,,,,,,,,,,,,,,,,f,2.511095,0,3,3,3,1,trainingaudio/20_tatito1.wav,trainingaudio/20_tatito3.wav,2,trainingaudio/20_tatito3.wav,,,,,,,,,,,,,,,,,,,,,,,,,,,,,,,,,,,,,
,,,,,,,,pngimages/24_banana.png,sarah,001,3456,2020-09-17_17h35.34.220,experiment,2020.1.3,Win32,60,,,,,,,,,,,,,,,,,test1,,,,,,,,,,,,,,,,,,,,,,f,1.47005,0,4,4,4,1,trainingaudio/24_takopa1.wav,trainingaudio/24_takopa2.wav,2,trainingaudio/24_takopa2.wav,,,,,,,,,,,,,,,,,,,,,,,,,,,,,,,,,,,,,
,,,,,,,,pngimages/09_plane.png,sarah,001,3456,2020-09-17_17h35.34.220,experiment,2020.1.3,Win32,60,,,,,,,,,,,,,,,,,test1,,,,,,,,,,,,,,,,,,,,,,j,1.508715,0,5,5,5,1,trainingaudio/09_tipata2.wav,trainingaudio/09_tipata1.wav,2,trainingaudio/09_tipata1.wav,,,,,,,,,,,,,,,,,,,,,,,,,,,,,,,,,,,,,
,,,,,,,,pngimages/14_coffee.png,sarah,001,3456,2020-09-17_17h35.34.220,experiment,2020.1.3,Win32,60,,,,,,,,,,,,,,,,,test1,,,,,,,,,,,,,,,,,,,,,,j,0.12594,0,6,6,6,1,trainingaudio/14_pokoto3.wav,trainingaudio/14_pokoto1.wav,2,trainingaudio/14_pokoto1.wav,,,,,,,,,,,,,,,,,,,,,,,,,,,,,,,,,,,,,
,,,,,,,,pngimages/15_barrel.png,sarah,001,3456,2020-09-17_17h35.34.220,experiment,2020.1.3,Win32,60,,,,,,,,,,,,,,,,,test1,,,,,,,,,,,,,,,,,,,,,,f,0.64139,0,7,7,7,1,trainingaudio/15_kopota1.wav,trainingaudio/15_kopota3.wav,1,trainingaudio/15_kopota1.wav,,,,,,,,,,,,,,,,,,,,,,,,,,,,,,,,,,,,,
,,,,,,,,pngimages/27_kiwi.png,sarah,001,3456,2020-09-17_17h35.34.220,experiment,2020.1.3,Win32,60,,,,,,,,,,,,,,,,,test1,,,,,,,,,,,,,,,,,,,,,,f,0.429835,0,8,8,8,1,trainingaudio/27_pakapa3.wav,trainingaudio/27_pakapa1.wav,2,trainingaudio/27_pakapa1.wav,,,,,,,,,,,,,,,,,,,,,,,,,,,,,,,,,,,,,
,,,,,,,,pngimages/22_egg.png,sarah,001,3456,2020-09-17_17h35.34.220,experiment,2020.1.3,Win32,60,,,,,,,,,,,,,,,,,test1,,,,,,,,,,,,,,,,,,,,,,f,1.299685,0,9,9,9,1,trainingaudio/22_kakoki2.wav,trainingaudio/22_kakoki3.wav,1,trainingaudio/22_kakoki2.wav,,,,,,,,,,,,,,,,,,,,,,,,,,,,,,,,,,,,,
,,,,,,,,pngimages/18_donut.png,sarah,001,3456,2020-09-17_17h35.34.220,experiment,2020.1.3,Win32,60,,,,,,,,,,,,,,,,,test1,,,,,,,,,,,,,,,,,,,,,,f,1.79258,0,10,10,10,1,trainingaudio/18_popata1.wav,trainingaudio/18_popata3.wav,1,trainingaudio/18_popata1.wav,,,,,,,,,,,,,,,,,,,,,,,,,,,,,,,,,,,,,
,,,,,,,,pngimages/13_toast.png,sarah,001,3456,2020-09-17_17h35.34.220,experiment,2020.1.3,Win32,60,,,,,,,,,,,,,,,,,test1,,,,,,,,,,,,,,,,,,,,,,f,0.35394,0,11,11,11,1,trainingaudio/13_kopopi1.wav,trainingaudio/13_kopopi2.wav,1,trainingaudio/13_kopopi1.wav,,,,,,,,,,,,,,,,,,,,,,,,,,,,,,,,,,,,,
,,,,,,,,pngimages/06_tent.png,sarah,001,3456,2020-09-17_17h35.34.220,experiment,2020.1.3,Win32,60,,,,,,,,,,,,,,,,,test1,,,,,,,,,,,,,,,,,,,,,,f,0.18149,0,12,12,12,1,trainingaudio/06_titoka2.wav,trainingaudio/06_titoka1.wav,1,trainingaudio/06_titoka2.wav,,,,,,,,,,,,,,,,,,,,,,,,,,,,,,,,,,,,,
,,,,,,,,pngimages/11_compass.png,sarah,001,3456,2020-09-17_17h35.34.220,experiment,2020.1.3,Win32,60,,,,,,,,,,,,,,,,,test1,,,,,,,,,,,,,,,,,,,,,,j,0.996515,0,13,13,13,1,trainingaudio/11_tokiko3.wav,trainingaudio/11_tokiko1.wav,2,trainingaudio/11_tokiko1.wav,,,,,,,,,,,,,,,,,,,,,,,,,,,,,,,,,,,,,
,,,,,,,,pngimages/05_megaphone.png,sarah,001,3456,2020-09-17_17h35.34.220,experiment,2020.1.3,Win32,60,,,,,,,,,,,,,,,,,test1,,,,,,,,,,,,,,,,,,,,,,,,0,14,14,14,1,trainingaudio/05_titopo2.wav,trainingaudio/05_titopo3.wav,1,trainingaudio/05_titopo2.wav,,,,,,,,,,,,,,,,,,,,,,,,,,,,,,,,,,,,,
,,,,,,,,pngimages/94_house.png,sarah,001,3456,2020-09-17_17h35.34.220,experiment,2020.1.3,Win32,60,,,,,,,,,,,,,,,,,test1,,,,,,,,,,,,,,,,,,,,,,f,3.71443,0,15,15,15,1,trainingaudio/94_kipipi1.wav,trainingaudio/94_kipipi2.wav,1,trainingaudio/94_kipipi1.wav,,,,,,,,,,,,,,,,,,,,,,,,,,,,,,,,,,,,,
,,,,,,,,pngimages/07_suitcase.png,sarah,001,3456,2020-09-17_17h35.34.220,experiment,2020.1.3,Win32,60,,,,,,,,,,,,,,,,,test1,,,,,,,,,,,,,,,,,,,,,,f,1.76115,0,16,16,16,1,trainingaudio/07_pitapi1.wav,trainingaudio/07_pitapi3.wav,1,trainingaudio/07_pitapi1.wav,,,,,,,,,,,,,,,,,,,,,,,,,,,,,,,,,,,,,
,,,,,,,,pngimages/25_apple.png,sarah,001,3456,2020-09-17_17h35.34.220,experiment,2020.1.3,Win32,60,,,,,,,,,,,,,,,,,test1,,,,,,,,,,,,,,,,,,,,,,f,1.69051,0,17,17,17,1,trainingaudio/25_tapapi1.wav,trainingaudio/25_tapapi3.wav,2,trainingaudio/25_tapapi3.wav,,,,,,,,,,,,,,,,,,,,,,,,,,,,,,,,,,,,,
,,,,,,,,pngimages/03_box.png,sarah,001,3456,2020-09-17_17h35.34.220,experiment,2020.1.3,Win32,60,,,,,,,,,,,,,,,,,test1,,,,,,,,,,,,,,,,,,,,,,f,0.226045,0,18,18,18,1,trainingaudio/03_kikita3.wav,trainingaudio/03_kikita1.wav,2,trainingaudio/03_kikita1.wav,,,,,,,,,,,,,,,,,,,,,,,,,,,,,,,,,,,,,
,,,,,,,,pngimages/01_gift.png,sarah,001,3456,2020-09-17_17h35.34.220,experiment,2020.1.3,Win32,60,,,,,,,,,,,,,,,,,test1,,,,,,,,,,,,,,,,,,,,,,f,2.49778,0,19,19,19,1,trainingaudio/01_kitipi2.wav,trainingaudio/01_kitipi1.wav,2,trainingaudio/01_kitipi1.wav,,,,,,,,,,,,,,,,,,,,,,,,,,,,,,,,,,,,,
,,,,,,,,pngimages/26_pineapple.png,sarah,001,3456,2020-09-17_17h35.34.220,experiment,2020.1.3,Win32,60,,,,,,,,,,,,,,,,,test1,,,,,,,,,,,,,,,,,,,,,,f,0.719025,0,20,20,20,1,trainingaudio/26_kapako1.wav,trainingaudio/26_kapako3.wav,2,trainingaudio/26_kapako3.wav,,,,,,,,,,,,,,,,,,,,,,,,,,,,,,,,,,,,,
,,,,,,,,pngimages/10_backpack.png,sarah,001,3456,2020-09-17_17h35.34.220,experiment,2020.1.3,Win32,60,,,,,,,,,,,,,,,,,test1,,,,,,,,,,,,,,,,,,,,,,f,0.235065,0,21,21,21,1,trainingaudio/10_tokiti3.wav,trainingaudio/10_tokiti1.wav,2,trainingaudio/10_tokiti1.wav,,,,,,,,,,,,,,,,,,,,,,,,,,,,,,,,,,,,,
,,,,,,,,pngimages/21_cheese.png,sarah,001,3456,2020-09-17_17h35.34.220,experiment,2020.1.3,Win32,60,,,,,,,,,,,,,,,,,test1,,,,,,,,,,,,,,,,,,,,,,f,0.42016,0,22,22,22,1,trainingaudio/21_papika2.wav,trainingaudio/21_papika3.wav,1,trainingaudio/21_papika2.wav,,,,,,,,,,,,,,,,,,,,,,,,,,,,,,,,,,,,,
,,,,,,,,pngimages/19_burger.png,sarah,001,3456,2020-09-17_17h35.34.220,experiment,2020.1.3,Win32,60,,,,,,,,,,,,,,,,,test1,,,,,,,,,,,,,,,,,,,,,,f,3.66665,0,23,23,23,1,trainingaudio/19_papipi2.wav,trainingaudio/19_papipi3.wav,1,trainingaudio/19_papipi2.wav,,,,,,,,,,,,,,,,,,,,,,,,,,,,,,,,,,,,,
,,,,,,,,pngimages/17_cracker.png,sarah,001,3456,2020-09-17_17h35.34.220,experiment,2020.1.3,Win32,60,,,,,,,,,,,,,,,,,test1,,,,,,,,,,,,,,,,,,,,,,j,0.868105,0,24,24,24,1,trainingaudio/17_kotako2.wav,trainingaudio/17_kotako1.wav,2,trainingaudio/17_kotako1.wav,,,,,,,,,,,,,,,,,,,,,,,,,,,,,,,,,,,,,
,,,,,,,,pngimages/16_icecream.png,sarah,001,3456,2020-09-17_17h35.34.220,experiment,2020.1.3,Win32,60,,,,,,,,,,,,,,,,,test1,,,,,,,,,,,,,,,,,,,,,,f,5.93709,0,25,25,25,1,trainingaudio/16_kokapi2.wav,trainingaudio/16_kokapi1.wav,2,trainingaudio/16_kokapi1.wav,,,,,,,,,,,,,,,,,,,,,,,,,,,,,,,,,,,,,
,,,,,,,,pngimages/23_lemon.png,sarah,001,3456,2020-09-17_17h35.34.220,experiment,2020.1.3,Win32,60,,,,,,,,,,,,,,,,,test1,,,,,,,,,,,,,,,,,,,,,,f,3.343075,0,26,26,26,1,trainingaudio/23_patoko1.wav,trainingaudio/23_patoko2.wav,2,trainingaudio/23_patoko2.wav,,,,,,,,,,,,,,,,,,,,,,,,,,,,,,,,,,,,,
,,,,,,,,pngimages/08_bell.png,sarah,001,3456,2020-09-17_17h35.34.220,experiment,2020.1.3,Win32,60,,,,,,,,,,,,,,,,,test1,,,,,,,,,,,,,,,,,,,,,,f,0.251955,0,27,27,27,1,trainingaudio/08_tipako3.wav,trainingaudio/08_tipako2.wav,1,trainingaudio/08_tipako3.wav,,,,,,,,,,,,,,,,,,,,,,,,,,,,,,,,,,,,,
,,,,,,,,pngimages/27_kiwi.png,sarah,001,3456,2020-09-17_17h35.34.220,experiment,2020.1.3,Win32,60,,,,,,,,,,,,,,,,,test1,,,,,,,,,,,,,,,,,,,,,,j,0.301365,0,28,28,28,1,trainingaudio/27_pakapa2.wav,trainingaudio/27_pakapa1.wav,2,trainingaudio/27_pakapa1.wav,,,,,,,,,,,,,,,,,,,,,,,,,,,,,,,,,,,,,
,,,,,,,,pngimages/20_pizza.png,sarah,001,3456,2020-09-17_17h35.34.220,experiment,2020.1.3,Win32,60,,,,,,,,,,,,,,,,,test1,,,,,,,,,,,,,,,,,,,,,,f,0.542085,0,29,29,29,1,trainingaudio/20_tatito2.wav,trainingaudio/20_tatito3.wav,2,trainingaudio/20_tatito3.wav,,,,,,,,,,,,,,,,,,,,,,,,,,,,,,,,,,,,,
,,,,,,,,pngimages/12_pie.png,sarah,001,3456,2020-09-17_17h35.34.220,experiment,2020.1.3,Win32,60,,,,,,,,,,,,,,,,,test1,,,,,,,,,,,,,,,,,,,,,,f,0.51767,0,30,30,30,1,trainingaudio/12_pokika1.wav,trainingaudio/12_pokika2.wav,1,trainingaudio/12_pokika1.wav,,,,,,,,,,,,,,,,,,,,,,,,,,,,,,,,,,,,,
,,,,,,,,pngimages/01_gift.png,sarah,001,3456,2020-09-17_17h35.34.220,experiment,2020.1.3,Win32,60,,,,,,,,,,,,,,,,,test1,,,,,,,,,,,,,,,,,,,,,,j,0.367715,0,31,31,31,1,trainingaudio/01_kitipi3.wav,trainingaudio/01_kitipi1.wav,2,trainingaudio/01_kitipi1.wav,,,,,,,,,,,,,,,,,,,,,,,,,,,,,,,,,,,,,
,,,,,,,,pngimages/09_plane.png,sarah,001,3456,2020-09-17_17h35.34.220,experiment,2020.1.3,Win32,60,,,,,,,,,,,,,,,,,test1,,,,,,,,,,,,,,,,,,,,,,f,0.2852,0,32,32,32,1,trainingaudio/09_tipata3.wav,trainingaudio/09_tipata1.wav,2,trainingaudio/09_tipata1.wav,,,,,,,,,,,,,,,,,,,,,,,,,,,,,,,,,,,,,
,,,,,,,,pngimages/25_apple.png,sarah,001,3456,2020-09-17_17h35.34.220,experiment,2020.1.3,Win32,60,,,,,,,,,,,,,,,,,test1,,,,,,,,,,,,,,,,,,,,,,j,0.501875,0,33,33,33,1,trainingaudio/25_tapapi2.wav,trainingaudio/25_tapapi3.wav,2,trainingaudio/25_tapapi3.wav,,,,,,,,,,,,,,,,,,,,,,,,,,,,,,,,,,,,,
,,,,,,,,pngimages/02_pallet.png,sarah,001,3456,2020-09-17_17h35.34.220,experiment,2020.1.3,Win32,60,,,,,,,,,,,,,,,,,test1,,,,,,,,,,,,,,,,,,,,,,,,0,34,34,34,1,trainingaudio/02_pitito3.wav,trainingaudio/02_pitito2.wav,1,trainingaudio/02_pitito3.wav,,,,,,,,,,,,,,,,,,,,,,,,,,,,,,,,,,,,,
,,,,,,,,pngimages/08_bell.png,sarah,001,3456,2020-09-17_17h35.34.220,experiment,2020.1.3,Win32,60,,,,,,,,,,,,,,,,,test1,,,,,,,,,,,,,,,,,,,,,,f,3.96496,0,35,35,35,1,trainingaudio/08_tipako3.wav,trainingaudio/08_tipako1.wav,1,trainingaudio/08_tipako3.wav,,,,,,,,,,,,,,,,,,,,,,,,,,,,,,,,,,,,,
,,,,,,,,pngimages/15_barrel.png,sarah,001,3456,2020-09-17_17h35.34.220,experiment,2020.1.3,Win32,60,,,,,,,,,,,,,,,,,test1,,,,,,,,,,,,,,,,,,,,,,f,9.060415,0,36,36,36,1,trainingaudio/15_kopota2.wav,trainingaudio/15_kopota1.wav,2,trainingaudio/15_kopota1.wav,,,,,,,,,,,,,,,,,,,,,,,,,,,,,,,,,,,,,
,,,,,,,,pngimages/24_banana.png,sarah,001,3456,2020-09-17_17h35.34.220,experiment,2020.1.3,Win32,60,,,,,,,,,,,,,,,,,test1,,,,,,,,,,,,,,,,,,,,,,j,1.2029,0,37,37,37,1,trainingaudio/24_takopa3.wav,trainingaudio/24_takopa2.wav,2,trainingaudio/24_takopa2.wav,,,,,,,,,,,,,,,,,,,,,,,,,,,,,,,,,,,,,
,,,,,,,,pngimages/06_tent.png,sarah,001,3456,2020-09-17_17h35.34.220,experiment,2020.1.3,Win32,60,,,,,,,,,,,,,,,,,test1,,,,,,,,,,,,,,,,,,,,,,j,1.2255,0,38,38,38,1,trainingaudio/06_titoka3.wav,trainingaudio/06_titoka2.wav,2,trainingaudio/06_titoka2.wav,,,,,,,,,,,,,,,,,,,,,,,,,,,,,,,,,,,,,
,,,,,,,,pngimages/16_icecream.png,sarah,001,3456,2020-09-17_17h35.34.220,experiment,2020.1.3,Win32,60,,,,,,,,,,,,,,,,,test1,,,,,,,,,,,,,,,,,,,,,,j,1.016185,0,39,39,39,1,trainingaudio/16_kokapi1.wav,trainingaudio/16_kokapi3.wav,1,trainingaudio/16_kokapi1.wav,,,,,,,,,,,,,,,,,,,,,,,,,,,,,,,,,,,,,
,,,,,,,,pngimages/04_ladder.png,sarah,001,3456,2020-09-17_17h35.34.220,experiment,2020.1.3,Win32,60,,,,,,,,,,,,,,,,,test1,,,,,,,,,,,,,,,,,,,,,,f,0.31747,0,40,40,40,1,trainingaudio/04_kitoti1.wav,trainingaudio/04_kitoti2.wav,2,trainingaudio/04_kitoti2.wav,,,,,,,,,,,,,,,,,,,,,,,,,,,,,,,,,,,,,
,,,,,,,,pngimages/22_egg.png,sarah,001,3456,2020-09-17_17h35.34.220,experiment,2020.1.3,Win32,60,,,,,,,,,,,,,,,,,test1,,,,,,,,,,,,,,,,,,,,,,f,7.714275,0,41,41,41,1,trainingaudio/22_kakoki1.wav,trainingaudio/22_kakoki2.wav,2,trainingaudio/22_kakoki2.wav,,,,,,,,,,,,,,,,,,,,,,,,,,,,,,,,,,,,,
,,,,,,,,pngimages/17_cracker.png,sarah,001,3456,2020-09-17_17h35.34.220,experiment,2020.1.3,Win32,60,,,,,,,,,,,,,,,,,test1,,,,,,,,,,,,,,,,,,,,,,j,0.022475,0,42,42,42,1,trainingaudio/17_kotako1.wav,trainingaudio/17_kotako3.wav,1,trainingaudio/17_kotako1.wav,,,,,,,,,,,,,,,,,,,,,,,,,,,,,,,,,,,,,
,,,,,,,,pngimages/13_toast.png,sarah,001,3456,2020-09-17_17h35.34.220,experiment,2020.1.3,Win32,60,,,,,,,,,,,,,,,,,test1,,,,,,,,,,,,,,,,,,,,,,f,2.886915,0,43,43,43,1,trainingaudio/13_kopopi3.wav,trainingaudio/13_kopopi1.wav,2,trainingaudio/13_kopopi1.wav,,,,,,,,,,,,,,,,,,,,,,,,,,,,,,,,,,,,,
,,,,,,,,pngimages/94_house.png,sarah,001,3456,2020-09-17_17h35.34.220,experiment,2020.1.3,Win32,60,,,,,,,,,,,,,,,,,test1,,,,,,,,,,,,,,,,,,,,,,j,1.886335,0,44,44,44,1,trainingaudio/94_kipipi2.wav,trainingaudio/94_kipipi1.wav,2,trainingaudio/94_kipipi1.wav,,,,,,,,,,,,,,,,,,,,,,,,,,,,,,,,,,,,,
,,,,,,,,pngimages/07_suitcase.png,sarah,001,3456,2020-09-17_17h35.34.220,experiment,2020.1.3,Win32,60,,,,,,,,,,,,,,,,,test1,,,,,,,,,,,,,,,,,,,,,,j,3.064335,0,45,45,45,1,trainingaudio/07_pitapi1.wav,trainingaudio/07_pitapi3.wav,1,trainingaudio/07_pitapi1.wav,,,,,,,,,,,,,,,,,,,,,,,,,,,,,,,,,,,,,
,,,,,,,,pngimages/10_backpack.png,sarah,001,3456,2020-09-17_17h35.34.220,experiment,2020.1.3,Win32,60,,,,,,,,,,,,,,,,,test1,,,,,,,,,,,,,,,,,,,,,,f,1.667395,0,46,46,46,1,trainingaudio/10_tokiti3.wav,trainingaudio/10_tokiti1.wav,2,trainingaudio/10_tokiti1.wav,,,,,,,,,,,,,,,,,,,,,,,,,,,,,,,,,,,,,
,,,,,,,,pngimages/19_burger.png,sarah,001,3456,2020-09-17_17h35.34.220,experiment,2020.1.3,Win32,60,,,,,,,,,,,,,,,,,test1,,,,,,,,,,,,,,,,,,,,,,,,0,47,47,47,1,trainingaudio/19_papipi3.wav,trainingaudio/19_papipi2.wav,2,trainingaudio/19_papipi2.wav,,,,,,,,,,,,,,,,,,,,,,,,,,,,,,,,,,,,,
,,,,,,,,pngimages/18_donut.png,sarah,001,3456,2020-09-17_17h35.34.220,experiment,2020.1.3,Win32,60,,,,,,,,,,,,,,,,,test1,,,,,,,,,,,,,,,,,,,,,,f,9.373765,0,48,48,48,1,trainingaudio/18_popata1.wav,trainingaudio/18_popata3.wav,1,trainingaudio/18_popata1.wav,,,,,,,,,,,,,,,,,,,,,,,,,,,,,,,,,,,,,
,,,,,,,,pngimages/11_compass.png,sarah,001,3456,2020-09-17_17h35.34.220,experiment,2020.1.3,Win32,60,,,,,,,,,,,,,,,,,test1,,,,,,,,,,,,,,,,,,,,,,f,5.96314,0,49,49,49,1,trainingaudio/11_tokiko1.wav,trainingaudio/11_tokiko2.wav,1,trainingaudio/11_tokiko1.wav,,,,,,,,,,,,,,,,,,,,,,,,,,,,,,,,,,,,,
,,,,,,,,pngimages/21_cheese.png,sarah,001,3456,2020-09-17_17h35.34.220,experiment,2020.1.3,Win32,60,,,,,,,,,,,,,,,,,test1,,,,,,,,,,,,,,,,,,,,,,j,2.099845,0,50,50,50,1,trainingaudio/21_papika2.wav,trainingaudio/21_papika3.wav,1,trainingaudio/21_papika2.wav,,,,,,,,,,,,,,,,,,,,,,,,,,,,,,,,,,,,,
,,,,,,,,pngimages/05_megaphone.png,sarah,001,3456,2020-09-17_17h35.34.220,experiment,2020.1.3,Win32,60,,,,,,,,,,,,,,,,,test1,,,,,,,,,,,,,,,,,,,,,,j,0.350455,0,51,51,51,1,trainingaudio/05_titopo2.wav,trainingaudio/05_titopo3.wav,1,trainingaudio/05_titopo2.wav,,,,,,,,,,,,,,,,,,,,,,,,,,,,,,,,,,,,,
,,,,,,,,pngimages/26_pineapple.png,sarah,001,3456,2020-09-17_17h35.34.220,experiment,2020.1.3,Win32,60,,,,,,,,,,,,,,,,,test1,,,,,,,,,,,,,,,,,,,,,,f,1.43393,0,52,52,52,1,trainingaudio/26_kapako3.wav,trainingaudio/26_kapako1.wav,1,trainingaudio/26_kapako3.wav,,,,,,,,,,,,,,,,,,,,,,,,,,,,,,,,,,,,,
,,,,,,,,pngimages/23_lemon.png,sarah,001,3456,2020-09-17_17h35.34.220,experiment,2020.1.3,Win32,60,,,,,,,,,,,,,,,,,test1,,,,,,,,,,,,,,,,,,,,,,f,0.87365,0,53,53,53,1,trainingaudio/23_patoko2.wav,trainingaudio/23_patoko3.wav,1,trainingaudio/23_patoko2.wav,,,,,,,,,,,,,,,,,,,,,,,,,,,,,,,,,,,,,
,,,,,,,,pngimages/14_coffee.png,sarah,001,3456,2020-09-17_17h35.34.220,experiment,2020.1.3,Win32,60,,,,,,,,,,,,,,,,,test1,,,,,,,,,,,,,,,,,,,,,,j,0.193365,0,54,54,54,1,trainingaudio/14_pokoto2.wav,trainingaudio/14_pokoto1.wav,2,trainingaudio/14_pokoto1.wav,,,,,,,,,,,,,,,,,,,,,,,,,,,,,,,,,,,,,
,,,,,,,,pngimages/03_box.png,sarah,001,3456,2020-09-17_17h35.34.220,experiment,2020.1.3,Win32,60,,,,,,,,,,,,,,,,,test1,,,,,,,,,,,,,,,,,,,,,,j,0.66374,0,55,55,55,1,trainingaudio/03_kikita1.wav,trainingaudio/03_kikita2.wav,1,trainingaudio/03_kikita1.wav,,,,,,,,,,,,,,,,,,,,,,,,,,,,,,,,,,,,,
,,,,,,,,pngimages/67_laptop.png,sarah,001,3456,2020-09-17_17h35.34.220,experiment,2020.1.3,Win32,60,,,,,,,,,,,,,,,,,test2,,,,,,,,,,,,,,,,,,,,,,,,,,,,,novelaudio/67_tokoki1.wav,novelaudio/67_tokoki2.wav,1,,return,2.46936,return,1.329895,f,0.34242,0,0,0,0,1,,,,,,,,,,,,,,,,,,,,,,,,,,
,,,,,,,,pngimages/49_calculator.png,sarah,001,3456,2020-09-17_17h35.34.220,experiment,2020.1.3,Win32,60,,,,,,,,,,,,,,,,,test2,,,,,,,,,,,,,,,,,,,,,,,,,,,,,novelaudio/49_tatopi3.wav,novelaudio/49_tatopi2.wav,2,,,,,,j,0.520875,0,1,1,1,1,,,,,,,,,,,,,,,,,,,,,,,,,,
,,,,,,,,pngimages/59_umbrella.png,sarah,001,3456,2020-09-17_17h35.34.220,experiment,2020.1.3,Win32,60,,,,,,,,,,,,,,,,,test2,,,,,,,,,,,,,,,,,,,,,,,,,,,,,novelaudio/59_tipoko2.wav,novelaudio/59_tipoko3.wav,1,,,,,,j,0.701975,0,2,2,2,1,,,,,,,,,,,,,,,,,,,,,,,,,,
,,,,,,,,pngimages/45_scissors.png,sarah,001,3456,2020-09-17_17h35.34.220,experiment,2020.1.3,Win32,60,,,,,,,,,,,,,,,,,test2,,,,,,,,,,,,,,,,,,,,,,,,,,,,,novelaudio/45_totaka1.wav,novelaudio/45_totaka2.wav,1,,,,,,j,2.680475,0,3,3,3,1,,,,,,,,,,,,,,,,,,,,,,,,,,
,,,,,,,,pngimages/35_skillet.png,sarah,001,3456,2020-09-17_17h35.34.220,experiment,2020.1.3,Win32,60,,,,,,,,,,,,,,,,,test2,,,,,,,,,,,,,,,,,,,,,,,,,,,,,novelaudio/35_titato3.wav,novelaudio/35_titato1.wav,1,,,,,,j,1.60207,0,4,4,4,1,,,,,,,,,,,,,,,,,,,,,,,,,,
,,,,,,,,pngimages/39_fork.png,sarah,001,3456,2020-09-17_17h35.34.220,experiment,2020.1.3,Win32,60,,,,,,,,,,,,,,,,,test2,,,,,,,,,,,,,,,,,,,,,,,,,,,,,novelaudio/39_kotipa2.wav,novelaudio/39_kotipa1.wav,2,,,,,,j,5.9638,0,5,5,5,1,,,,,,,,,,,,,,,,,,,,,,,,,,
,,,,,,,,pngimages/68_heart.png,sarah,001,3456,2020-09-17_17h35.34.220,experiment,2020.1.3,Win32,60,,,,,,,,,,,,,,,,,test2,,,,,,,,,,,,,,,,,,,,,,,,,,,,,novelaudio/68_pokopo2.wav,novelaudio/68_pokopo1.wav,2,,,,,,j,1.22038,0,6,6,6,1,,,,,,,,,,,,,,,,,,,,,,,,,,
,,,,,,,,pngimages/74_boat.png,sarah,001,3456,2020-09-17_17h35.34.220,experiment,2020.1.3,Win32,60,,,,,,,,,,,,,,,,,test2,,,,,,,,,,,,,,,,,,,,,,,,,,,,,novelaudio/74_tatiko3.wav,novelaudio/74_tatiko1.wav,1,,,,,,j,0.951395,0,7,7,7,1,,,,,,,,,,,,,,,,,,,,,,,,,,
,,,,,,,,pngimages/75_chicken.png,sarah,001,3456,2020-09-17_17h35.34.220,experiment,2020.1.3,Win32,60,,,,,,,,,,,,,,,,,test2,,,,,,,,,,,,,,,,,,,,,,,,,,,,,novelaudio/75_kakita3.wav,novelaudio/75_kakita2.wav,2,,,,,,j,0.433825,0,8,8,8,1,,,,,,,,,,,,,,,,,,,,,,,,,,
,,,,,,,,pngimages/29_cherry.png,sarah,001,3456,2020-09-17_17h35.34.220,experiment,2020.1.3,Win32,60,,,,,,,,,,,,,,,,,test2,,,,,,,,,,,,,,,,,,,,,,,,,,,,,novelaudio/29_pipito3.wav,novelaudio/29_pipito2.wav,1,,,,,,j,0.487225,0,9,9,9,1,,,,,,,,,,,,,,,,,,,,,,,,,,
,,,,,,,,pngimages/62_screwdriver.png,sarah,001,3456,2020-09-17_17h35.34.220,experiment,2020.1.3,Win32,60,,,,,,,,,,,,,,,,,test2,,,,,,,,,,,,,,,,,,,,,,,,,,,,,novelaudio/62_pitako3.wav,novelaudio/62_pitako1.wav,1,,,,,,j,0.37019,0,10,10,10,1,,,,,,,,,,,,,,,,,,,,,,,,,,
,,,,,,,,pngimages/40_spoon.png,sarah,001,3456,2020-09-17_17h35.34.220,experiment,2020.1.3,Win32,60,,,,,,,,,,,,,,,,,test2,,,,,,,,,,,,,,,,,,,,,,,,,,,,,novelaudio/40_kototi2.wav,novelaudio/40_kototi1.wav,2,,,,,,f,0.203735,0,11,11,11,1,,,,,,,,,,,,,,,,,,,,,,,,,,
,,,,,,,,pngimages/52_newspaper.png,sarah,001,3456,2020-09-17_17h35.34.220,experiment,2020.1.3,Win32,60,,,,,,,,,,,,,,,,,test2,,,,,,,,,,,,,,,,,,,,,,,,,,,,,novelaudio/52_pakaki2.wav,novelaudio/52_pakaki3.wav,2,,,,,,f,0.33525,0,12,12,12,1,,,,,,,,,,,,,,,,,,,,,,,,,,
,,,,,,,,pngimages/46_paper.png,sarah,001,3456,2020-09-17_17h35.34.220,experiment,2020.1.3,Win32,60,,,,,,,,,,,,,,,,,test2,,,,,,,,,,,,,,,,,,,,,,,,,,,,,novelaudio/46_tapiti2.wav,novelaudio/46_tapiti1.wav,1,,,,,,j,0.07114,0,13,13,13,1,,,,,,,,,,,,,,,,,,,,,,,,,,
,,,,,,,,pngimages/78_cow.png,sarah,001,3456,2020-09-17_17h35.34.220,experiment,2020.1.3,Win32,60,,,,,,,,,,,,,,,,,test2,,,,,,,,,,,,,,,,,,,,,,,,,,,,,novelaudio/78_kakoka2.wav,novelaudio/78_kakoka1.wav,1,,,,,,j,0.235995,0,14,14,14,1,,,,,,,,,,,,,,,,,,,,,,,,,,
,,,,,,,,pngimages/37_mug.png,sarah,001,3456,2020-09-17_17h35.34.220,experiment,2020.1.3,Win32,60,,,,,,,,,,,,,,,,,test2,,,,,,,,,,,,,,,,,,,,,,,,,,,,,novelaudio/37_kokiti1.wav,novelaudio/37_kokiti3.wav,1,,,,,,j,0.835885,0,15,15,15,1,,,,,,,,,,,,,,,,,,,,,,,,,,
,,,,,,,,pngimages/41_piano.png,sarah,001,3456,2020-09-17_17h35.34.220,experiment,2020.1.3,Win32,60,,,,,,,,,,,,,,,,,test2,,,,,,,,,,,,,,,,,,,,,,,,,,,,,novelaudio/41_pototo1.wav,novelaudio/41_pototo2.wav,1,,,,,,j,2.235715,0,16,16,16,1,,,,,,,,,,,,,,,,,,,,,,,,,,
,,,,,,,,pngimages/50_ruler.png,sarah,001,3456,2020-09-17_17h35.34.220,experiment,2020.1.3,Win32,60,,,,,,,,,,,,,,,,,test2,,,,,,,,,,,,,,,,,,,,,,,,,,,,,novelaudio/50_katoko1.wav,novelaudio/50_katoko2.wav,2,,,,,,j,0.218985,0,17,17,17,1,,,,,,,,,,,,,,,,,,,,,,,,,,
,,,,,,,,pngimages/72_nose.png,sarah,001,3456,2020-09-17_17h35.34.220,experiment,2020.1.3,Win32,60,,,,,,,,,,,,,,,,,test2,,,,,,,,,,,,,,,,,,,,,,,,,,,,,novelaudio/72_topata1.wav,novelaudio/72_topata3.wav,1,,,,,,f,0.302325,0,18,18,18,1,,,,,,,,,,,,,,,,,,,,,,,,,,
,,,,,,,,pngimages/64_shovel.png,sarah,001,3456,2020-09-17_17h35.34.220,experiment,2020.1.3,Win32,60,,,,,,,,,,,,,,,,,test2,,,,,,,,,,,,,,,,,,,,,,,,,,,,,novelaudio/64_popiti3.wav,novelaudio/64_popiti1.wav,2,,,,,,j,0.60229,0,19,19,19,1,,,,,,,,,,,,,,,,,,,,,,,,,,
,,,,,,,,pngimages/61_key.png,sarah,001,3456,2020-09-17_17h35.34.220,experiment,2020.1.3,Win32,60,,,,,,,,,,,,,,,,,test2,,,,,,,,,,,,,,,,,,,,,,,,,,,,,novelaudio/61_pikati1.wav,novelaudio/61_pikati2.wav,1,,,,,,f,0.66844,0,20,20,20,1,,,,,,,,,,,,,,,,,,,,,,,,,,
,,,,,,,,pngimages/48_brush.png,sarah,001,3456,2020-09-17_17h35.34.220,experiment,2020.1.3,Win32,60,,,,,,,,,,,,,,,,,test2,,,,,,,,,,,,,,,,,,,,,,,,,,,,,novelaudio/48_pakipa2.wav,novelaudio/48_pakipa3.wav,1,,,,,,j,0.86124,0,21,21,21,1,,,,,,,,,,,,,,,,,,,,,,,,,,
,,,,,,,,pngimages/57_flashlight.png,sarah,001,3456,2020-09-17_17h35.34.220,experiment,2020.1.3,Win32,60,,,,,,,,,,,,,,,,,test2,,,,,,,,,,,,,,,,,,,,,,,,,,,,,novelaudio/57_tipipa1.wav,novelaudio/57_tipipa2.wav,1,,,,,,j,0.50356,0,22,22,22,1,,,,,,,,,,,,,,,,,,,,,,,,,,
,,,,,,,,pngimages/32_greenpepper.png,sarah,001,3456,2020-09-17_17h35.34.220,experiment,2020.1.3,Win32,60,,,,,,,,,,,,,,,,,test2,,,,,,,,,,,,,,,,,,,,,,,,,,,,,novelaudio/32_kipoto1.wav,novelaudio/32_kipoto2.wav,2,,,,,,j,1.51725,0,23,23,23,1,,,,,,,,,,,,,,,,,,,,,,,,,,
,,,,,,,,pngimages/54_toiletpaper.png,sarah,001,3456,2020-09-17_17h35.34.220,experiment,2020.1.3,Win32,60,,,,,,,,,,,,,,,,,test2,,,,,,,,,,,,,,,,,,,,,,,,,,,,,novelaudio/54_kapapa1.wav,novelaudio/54_kapapa2.wav,1,,,,,,j,1.56884,0,24,24,24,1,,,,,,,,,,,,,,,,,,,,,,,,,,
,,,,,,,,pngimages/79_pig.png,sarah,001,3456,2020-09-17_17h35.34.220,experiment,2020.1.3,Win32,60,,,,,,,,,,,,,,,,,test2,,,,,,,,,,,,,,,,,,,,,,,,,,,,,novelaudio/79_katapi3.wav,novelaudio/79_katapi1.wav,1,,,,,,j,1.1193,0,25,25,25,1,,,,,,,,,,,,,,,,,,,,,,,,,,
,,,,,,,,pngimages/55_toilet.png,sarah,001,3456,2020-09-17_17h35.34.220,experiment,2020.1.3,Win32,60,,,,,,,,,,,,,,,,,test2,,,,,,,,,,,,,,,,,,,,,,,,,,,,,novelaudio/55_pikiki3.wav,novelaudio/55_pikiki1.wav,2,,,,,,j,1.019915,0,26,26,26,1,,,,,,,,,,,,,,,,,,,,,,,,,,
,,,,,,,,pngimages/43_guitar.png,sarah,001,3456,2020-09-17_17h35.34.220,experiment,2020.1.3,Win32,60,,,,,,,,,,,,,,,,,test2,,,,,,,,,,,,,,,,,,,,,,,,,,,,,novelaudio/43_potaki3.wav,novelaudio/43_potaki1.wav,2,,,,,,j,3.64823,0,27,27,27,1,,,,,,,,,,,,,,,,,,,,,,,,,,
,,,,,,,,pngimages/53_hammer.png,sarah,001,3456,2020-09-17_17h35.34.220,experiment,2020.1.3,Win32,60,,,,,,,,,,,,,,,,,test2,,,,,,,,,,,,,,,,,,,,,,,,,,,,,novelaudio/53_patapo3.wav,novelaudio/53_patapo1.wav,1,,,,,,f,1.126965,0,28,28,28,1,,,,,,,,,,,,,,,,,,,,,,,,,,
,,,,,,,,pngimages/66_safe.png,sarah,001,3456,2020-09-17_17h35.34.220,experiment,2020.1.3,Win32,60,,,,,,,,,,,,,,,,,test2,,,,,,,,,,,,,,,,,,,,,,,,,,,,,novelaudio/66_kopipa3.wav,novelaudio/66_kopipa1.wav,2,,,,,,j,0.420095,0,29,29,29,1,,,,,,,,,,,,,,,,,,,,,,,,,,
,,,,,,,,pngimages/36_microwave.png,sarah,001,3456,2020-09-17_17h35.34.220,experiment,2020.1.3,Win32,60,,,,,,,,,,,,,,,,,test2,,,,,,,,,,,,,,,,,,,,,,,,,,,,,novelaudio/36_pipapa1.wav,novelaudio/36_pipapa2.wav,1,,,,,,j,3.50013,0,30,30,30,1,,,,,,,,,,,,,,,,,,,,,,,,,,
,,,,,,,,pngimages/81_cat.png,sarah,001,3456,2020-09-17_17h35.34.220,experiment,2020.1.3,Win32,60,,,,,,,,,,,,,,,,,test2,,,,,,,,,,,,,,,,,,,,,,,,,,,,,novelaudio/81_kakapa3.wav,novelaudio/81_kakapa1.wav,2,,,,,,f,1.36891,0,31,31,31,1,,,,,,,,,,,,,,,,,,,,,,,,,,
,,,,,,,,pngimages/28_grape.png,sarah,001,3456,2020-09-17_17h35.34.220,experiment,2020.1.3,Win32,60,,,,,,,,,,,,,,,,,test2,,,,,,,,,,,,,,,,,,,,,,,,,,,,,novelaudio/28_pipiki2.wav,novelaudio/28_pipiki1.wav,2,,,,,,j,1.08706,0,32,32,32,1,,,,,,,,,,,,,,,,,,,,,,,,,,
,,,,,,,,pngimages/65_wrench.png,sarah,001,3456,2020-09-17_17h35.34.220,experiment,2020.1.3,Win32,60,,,,,,,,,,,,,,,,,test2,,,,,,,,,,,,,,,,,,,,,,,,,,,,,novelaudio/65_totipo3.wav,novelaudio/65_totipo1.wav,2,,,,,,f,0.230195,0,33,33,33,1,,,,,,,,,,,,,,,,,,,,,,,,,,
,,,,,,,,pngimages/51_pencil.png,sarah,001,3456,2020-09-17_17h35.34.220,experiment,2020.1.3,Win32,60,,,,,,,,,,,,,,,,,test2,,,,,,,,,,,,,,,,,,,,,,,,,,,,,novelaudio/51_tapopa2.wav,novelaudio/51_tapopa3.wav,1,,,,,,j,1.66559,0,34,34,34,1,,,,,,,,,,,,,,,,,,,,,,,,,,
,,,,,,,,pngimages/44_envelope.png,sarah,001,3456,2020-09-17_17h35.34.220,experiment,2020.1.3,Win32,60,,,,,,,,,,,,,,,,,test2,,,,,,,,,,,,,,,,,,,,,,,,,,,,,novelaudio/44_pokato3.wav,novelaudio/44_pokato1.wav,2,,,,,,j,0.26143,0,35,35,35,1,,,,,,,,,,,,,,,,,,,,,,,,,,
,,,,,,,,pngimages/70_hand.png,sarah,001,3456,2020-09-17_17h35.34.220,experiment,2020.1.3,Win32,60,,,,,,,,,,,,,,,,,test2,,,,,,,,,,,,,,,,,,,,,,,,,,,,,novelaudio/70_kopati2.wav,novelaudio/70_kopati1.wav,2,,,,,,f,0.13343,0,36,36,36,1,,,,,,,,,,,,,,,,,,,,,,,,,,
,,,,,,,,pngimages/31_tomato.png,sarah,001,3456,2020-09-17_17h35.34.220,experiment,2020.1.3,Win32,60,,,,,,,,,,,,,,,,,test2,,,,,,,,,,,,,,,,,,,,,,,,,,,,,novelaudio/31_kikopi1.wav,novelaudio/31_kikopi2.wav,2,,,,,,f,0.101745,0,37,37,37,1,,,,,,,,,,,,,,,,,,,,,,,,,,
,,,,,,,,pngimages/69_tooth.png,sarah,001,3456,2020-09-17_17h35.34.220,experiment,2020.1.3,Win32,60,,,,,,,,,,,,,,,,,test2,,,,,,,,,,,,,,,,,,,,,,,,,,,,,novelaudio/69_kotota3.wav,novelaudio/69_kotota1.wav,2,,,,,,j,0.26897,0,38,38,38,1,,,,,,,,,,,,,,,,,,,,,,,,,,
,,,,,,,,pngimages/63_chair.png,sarah,001,3456,2020-09-17_17h35.34.220,experiment,2020.1.3,Win32,60,,,,,,,,,,,,,,,,,test2,,,,,,,,,,,,,,,,,,,,,,,,,,,,,novelaudio/63_pitapa1.wav,novelaudio/63_pitapa3.wav,1,,,,,,f,0.700535,0,39,39,39,1,,,,,,,,,,,,,,,,,,,,,,,,,,
,,,,,,,,pngimages/42_harp.png,sarah,001,3456,2020-09-17_17h35.34.220,experiment,2020.1.3,Win32,60,,,,,,,,,,,,,,,,,test2,,,,,,,,,,,,,,,,,,,,,,,,,,,,,novelaudio/42_tokota3.wav,novelaudio/42_tokota1.wav,2,,,,,,j,0.143355,0,40,40,40,1,,,,,,,,,,,,,,,,,,,,,,,,,,
,,,,,,,,pngimages/56_towel.png,sarah,001,3456,2020-09-17_17h35.34.220,experiment,2020.1.3,Win32,60,,,,,,,,,,,,,,,,,test2,,,,,,,,,,,,,,,,,,,,,,,,,,,,,novelaudio/56_pipiko3.wav,novelaudio/56_pipiko1.wav,1,,,,,,j,0.151885,0,41,41,41,1,,,,,,,,,,,,,,,,,,,,,,,,,,
,,,,,,,,pngimages/77_bear.png,sarah,001,3456,2020-09-17_17h35.34.220,experiment,2020.1.3,Win32,60,,,,,,,,,,,,,,,,,test2,,,,,,,,,,,,,,,,,,,,,,,,,,,,,novelaudio/77_takopo2.wav,novelaudio/77_takopo3.wav,1,,,,,,f,0.20299,0,42,42,42,1,,,,,,,,,,,,,,,,,,,,,,,,,,
,,,,,,,,pngimages/60_firewood.png,sarah,001,3456,2020-09-17_17h35.34.220,experiment,2020.1.3,Win32,60,,,,,,,,,,,,,,,,,test2,,,,,,,,,,,,,,,,,,,,,,,,,,,,,novelaudio/60_pipopa2.wav,novelaudio/60_pipopa1.wav,1,,,,,,j,0.252625,0,43,43,43,1,,,,,,,,,,,,,,,,,,,,,,,,,,
,,,,,,,,pngimages/76_rabbit.png,sarah,001,3456,2020-09-17_17h35.34.220,experiment,2020.1.3,Win32,60,,,,,,,,,,,,,,,,,test2,,,,,,,,,,,,,,,,,,,,,,,,,,,,,novelaudio/76_patoti2.wav,novelaudio/76_patoti1.wav,1,,,,,,f,0.15539,0,44,44,44,1,,,,,,,,,,,,,,,,,,,,,,,,,,
,,,,,,,,pngimages/80_dog.png,sarah,001,3456,2020-09-17_17h35.34.220,experiment,2020.1.3,Win32,60,,,,,,,,,,,,,,,,,test2,,,,,,,,,,,,,,,,,,,,,,,,,,,,,novelaudio/80_tatato1.wav,novelaudio/80_tatato3.wav,2,,,,,,j,2.129985,0,45,45,45,1,,,,,,,,,,,,,,,,,,,,,,,,,,
,,,,,,,,pngimages/47_notebook.png,sarah,001,3456,2020-09-17_17h35.34.220,experiment,2020.1.3,Win32,60,,,,,,,,,,,,,,,,,test2,,,,,,,,,,,,,,,,,,,,,,,,,,,,,novelaudio/47_takiko3.wav,novelaudio/47_takiko1.wav,1,,,,,,f,0.3693,0,46,46,46,1,,,,,,,,,,,,,,,,,,,,,,,,,,
,,,,,,,,pngimages/73_car.png,sarah,001,3456,2020-09-17_17h35.34.220,experiment,2020.1.3,Win32,60,,,,,,,,,,,,,,,,,test2,,,,,,,,,,,,,,,,,,,,,,,,,,,,,novelaudio/73_takiti1.wav,novelaudio/73_takiti2.wav,2,,,,,,f,0.01841,0,47,47,47,1,,,,,,,,,,,,,,,,,,,,,,,,,,
,,,,,,,,pngimages/58_nail.png,sarah,001,3456,2020-09-17_17h35.34.220,experiment,2020.1.3,Win32,60,,,,,,,,,,,,,,,,,test2,,,,,,,,,,,,,,,,,,,,,,,,,,,,,novelaudio/58_kipoki3.wav,novelaudio/58_kipoki2.wav,2,,,,,,j,0.46906,0,48,48,48,1,,,,,,,,,,,,,,,,,,,,,,,,,,
,,,,,,,,pngimages/71_eye.png,sarah,001,3456,2020-09-17_17h35.34.220,experiment,2020.1.3,Win32,60,,,,,,,,,,,,,,,,,test2,,,,,,,,,,,,,,,,,,,,,,,,,,,,,novelaudio/71_kotato2.wav,novelaudio/71_kotato1.wav,2,,,,,,f,1.1738,0,49,49,49,1,,,,,,,,,,,,,,,,,,,,,,,,,,
,,,,,,,,pngimages/34_knife.png,sarah,001,3456,2020-09-17_17h35.34.220,experiment,2020.1.3,Win32,60,,,,,,,,,,,,,,,,,test2,,,,,,,,,,,,,,,,,,,,,,,,,,,,,novelaudio/34_kipaki1.wav,novelaudio/34_kipaki2.wav,1,,,,,,j,3.148625,0,50,50,50,1,,,,,,,,,,,,,,,,,,,,,,,,,,
,,,,,,,,pngimages/33_watermelon.png,sarah,001,3456,2020-09-17_17h35.34.220,experiment,2020.1.3,Win32,60,,,,,,,,,,,,,,,,,test2,,,,,,,,,,,,,,,,,,,,,,,,,,,,,novelaudio/33_tipoka1.wav,novelaudio/33_tipoka2.wav,2,,,,,,f,1.95179,0,51,51,51,1,,,,,,,,,,,,,,,,,,,,,,,,,,
,,,,,,,,pngimages/30_mushroom.png,sarah,001,3456,2020-09-17_17h35.34.220,experiment,2020.1.3,Win32,60,,,,,,,,,,,,,,,,,test2,,,,,,,,,,,,,,,,,,,,,,,,,,,,,novelaudio/30_tikipa1.wav,novelaudio/30_tikipa3.wav,1,,,,,,j,0.402195,0,52,52,52,1,,,,,,,,,,,,,,,,,,,,,,,,,,
,,,,,,,,pngimages/38_plate.png,sarah,001,3456,2020-09-17_17h35.34.220,experiment,2020.1.3,Win32,60,,,,,,,,,,,,,,,,,test2,,,,,,,,,,,,,,,,,,,,,,,,,,,,,novelaudio/38_kokiko2.wav,novelaudio/38_kokiko1.wav,2,,,,,,f,1.317705,0,53,53,53,1,,,,,,,,,,,,,,,,,,,,,,,,,,
,,,,,,,,pngimages/65_wrench.png,sarah,001,3456,2020-09-17_17h35.34.220,experiment,2020.1.3,Win32,60,,,,,,,,,,,,,,,,,test3,,,,,,,,,,,,,,,,,,,,,,,,,,,,,novelaudio/65_totipo1.wav,novelaudio/65_totipo3.wav,1,,,,,,,,,,,,,apostrophe,1.428115,return,0.72703,j,0.228515,0,0,0,0,1,,,,,,,,,,,,,,,
,,,,,,,,pngimages/68_heart.png,sarah,001,3456,2020-09-17_17h35.34.220,experiment,2020.1.3,Win32,60,,,,,,,,,,,,,,,,,test3,,,,,,,,,,,,,,,,,,,,,,,,,,,,,novelaudio/68_pokopo2.wav,novelaudio/68_pokopo1.wav,2,,,,,,,,,,,,,,,,,f,0.934175,0,1,1,1,1,,,,,,,,,,,,,,,
,,,,,,,,pngimages/49_calculator.png,sarah,001,3456,2020-09-17_17h35.34.220,experiment,2020.1.3,Win32,60,,,,,,,,,,,,,,,,,test3,,,,,,,,,,,,,,,,,,,,,,,,,,,,,novelaudio/49_tatopi2.wav,novelaudio/49_tatopi3.wav,1,,,,,,,,,,,,,,,,,j,0.78147,0,2,2,2,1,,,,,,,,,,,,,,,
,,,,,,,,pngimages/45_scissors.png,sarah,001,3456,2020-09-17_17h35.34.220,experiment,2020.1.3,Win32,60,,,,,,,,,,,,,,,,,test3,,,,,,,,,,,,,,,,,,,,,,,,,,,,,novelaudio/45_totaka1.wav,novelaudio/45_totaka3.wav,1,,,,,,,,,,,,,,,,,f,0.689855,0,3,3,3,1,,,,,,,,,,,,,,,
,,,,,,,,pngimages/58_nail.png,sarah,001,3456,2020-09-17_17h35.34.220,experiment,2020.1.3,Win32,60,,,,,,,,,,,,,,,,,test3,,,,,,,,,,,,,,,,,,,,,,,,,,,,,novelaudio/58_kipoki2.wav,novelaudio/58_kipoki3.wav,1,,,,,,,,,,,,,,,,,f,0.36756,0,4,4,4,1,,,,,,,,,,,,,,,
,,,,,,,,pngimages/31_tomato.png,sarah,001,3456,2020-09-17_17h35.34.220,experiment,2020.1.3,Win32,60,,,,,,,,,,,,,,,,,test3,,,,,,,,,,,,,,,,,,,,,,,,,,,,,novelaudio/31_kikopi2.wav,novelaudio/31_kikopi3.wav,1,,,,,,,,,,,,,,,,,j,1.536255,0,5,5,5,1,,,,,,,,,,,,,,,
,,,,,,,,pngimages/46_paper.png,sarah,001,3456,2020-09-17_17h35.34.220,experiment,2020.1.3,Win32,60,,,,,,,,,,,,,,,,,test3,,,,,,,,,,,,,,,,,,,,,,,,,,,,,novelaudio/46_tapiti1.wav,novelaudio/46_tapiti2.wav,2,,,,,,,,,,,,,,,,,f,4.80374,0,6,6,6,1,,,,,,,,,,,,,,,
,,,,,,,,pngimages/33_watermelon.png,sarah,001,3456,2020-09-17_17h35.34.220,experiment,2020.1.3,Win32,60,,,,,,,,,,,,,,,,,test3,,,,,,,,,,,,,,,,,,,,,,,,,,,,,novelaudio/33_tipoka2.wav,novelaudio/33_tipoka3.wav,1,,,,,,,,,,,,,,,,,j,1.419245,0,7,7,7,1,,,,,,,,,,,,,,,
,,,,,,,,pngimages/29_cherry.png,sarah,001,3456,2020-09-17_17h35.34.220,experiment,2020.1.3,Win32,60,,,,,,,,,,,,,,,,,test3,,,,,,,,,,,,,,,,,,,,,,,,,,,,,novelaudio/29_pipito3.wav,novelaudio/29_pipito1.wav,1,,,,,,,,,,,,,,,,,j,0.468145,0,8,8,8,1,,,,,,,,,,,,,,,
,,,,,,,,pngimages/41_piano.png,sarah,001,3456,2020-09-17_17h35.34.220,experiment,2020.1.3,Win32,60,,,,,,,,,,,,,,,,,test3,,,,,,,,,,,,,,,,,,,,,,,,,,,,,novelaudio/41_pototo1.wav,novelaudio/41_pototo2.wav,1,,,,,,,,,,,,,,,,,j,1.267055,0,9,9,9,1,,,,,,,,,,,,,,,
,,,,,,,,pngimages/67_laptop.png,sarah,001,3456,2020-09-17_17h35.34.220,experiment,2020.1.3,Win32,60,,,,,,,,,,,,,,,,,test3,,,,,,,,,,,,,,,,,,,,,,,,,,,,,novelaudio/67_tokoki2.wav,novelaudio/67_tokoki1.wav,2,,,,,,,,,,,,,,,,,j,4.23368,0,10,10,10,1,,,,,,,,,,,,,,,
,,,,,,,,pngimages/43_guitar.png,sarah,001,3456,2020-09-17_17h35.34.220,experiment,2020.1.3,Win32,60,,,,,,,,,,,,,,,,,test3,,,,,,,,,,,,,,,,,,,,,,,,,,,,,novelaudio/43_potaki1.wav,novelaudio/43_potaki3.wav,1,,,,,,,,,,,,,,,,,j,1.567425,0,11,11,11,1,,,,,,,,,,,,,,,
,,,,,,,,pngimages/69_tooth.png,sarah,001,3456,2020-09-17_17h35.34.220,experiment,2020.1.3,Win32,60,,,,,,,,,,,,,,,,,test3,,,,,,,,,,,,,,,,,,,,,,,,,,,,,novelaudio/69_kotota2.wav,novelaudio/69_kotota1.wav,2,,,,,,,,,,,,,,,,,j,1.63309,0,12,12,12,1,,,,,,,,,,,,,,,
,,,,,,,,pngimages/79_pig.png,sarah,001,3456,2020-09-17_17h35.34.220,experiment,2020.1.3,Win32,60,,,,,,,,,,,,,,,,,test3,,,,,,,,,,,,,,,,,,,,,,,,,,,,,novelaudio/79_katapi3.wav,novelaudio/79_katapi1.wav,1,,,,,,,,,,,,,,,,,f,1.23828,0,13,13,13,1,,,,,,,,,,,,,,,
,,,,,,,,pngimages/44_envelope.png,sarah,001,3456,2020-09-17_17h35.34.220,experiment,2020.1.3,Win32,60,,,,,,,,,,,,,,,,,test3,,,,,,,,,,,,,,,,,,,,,,,,,,,,,novelaudio/44_pokato2.wav,novelaudio/44_pokato1.wav,2,,,,,,,,,,,,,,,,,f,1.00257,0,14,14,14,1,,,,,,,,,,,,,,,
,,,,,,,,pngimages/80_dog.png,sarah,001,3456,2020-09-17_17h35.34.220,experiment,2020.1.3,Win32,60,,,,,,,,,,,,,,,,,test3,,,,,,,,,,,,,,,,,,,,,,,,,,,,,novelaudio/80_tatato3.wav,novelaudio/80_tatato1.wav,1,,,,,,,,,,,,,,,,,j,0.46476,0,15,15,15,1,,,,,,,,,,,,,,,
,,,,,,,,pngimages/55_toilet.png,sarah,001,3456,2020-09-17_17h35.34.220,experiment,2020.1.3,Win32,60,,,,,,,,,,,,,,,,,test3,,,,,,,,,,,,,,,,,,,,,,,,,,,,,novelaudio/55_pikiki1.wav,novelaudio/55_pikiki3.wav,1,,,,,,,,,,,,,,,,,f,0.634925,0,16,16,16,1,,,,,,,,,,,,,,,
,,,,,,,,pngimages/72_nose.png,sarah,001,3456,2020-09-17_17h35.34.220,experiment,2020.1.3,Win32,60,,,,,,,,,,,,,,,,,test3,,,,,,,,,,,,,,,,,,,,,,,,,,,,,novelaudio/72_topata3.wav,novelaudio/72_topata1.wav,2,,,,,,,,,,,,,,,,,j,0.67762,0,17,17,17,1,,,,,,,,,,,,,,,
,,,,,,,,pngimages/62_screwdriver.png,sarah,001,3456,2020-09-17_17h35.34.220,experiment,2020.1.3,Win32,60,,,,,,,,,,,,,,,,,test3,,,,,,,,,,,,,,,,,,,,,,,,,,,,,novelaudio/62_pitako2.wav,novelaudio/62_pitako3.wav,2,,,,,,,,,,,,,,,,,f,0.884715,0,18,18,18,1,,,,,,,,,,,,,,,
,,,,,,,,pngimages/35_skillet.png,sarah,001,3456,2020-09-17_17h35.34.220,experiment,2020.1.3,Win32,60,,,,,,,,,,,,,,,,,test3,,,,,,,,,,,,,,,,,,,,,,,,,,,,,novelaudio/35_titato3.wav,novelaudio/35_titato2.wav,1,,,,,,,,,,,,,,,,,j,0.485455,0,19,19,19,1,,,,,,,,,,,,,,,
,,,,,,,,pngimages/50_ruler.png,sarah,001,3456,2020-09-17_17h35.34.220,experiment,2020.1.3,Win32,60,,,,,,,,,,,,,,,,,test3,,,,,,,,,,,,,,,,,,,,,,,,,,,,,novelaudio/50_katoko3.wav,novelaudio/50_katoko2.wav,2,,,,,,,,,,,,,,,,,f,0.41885,0,20,20,20,1,,,,,,,,,,,,,,,
,,,,,,,,pngimages/59_umbrella.png,sarah,001,3456,2020-09-17_17h35.34.220,experiment,2020.1.3,Win32,60,,,,,,,,,,,,,,,,,test3,,,,,,,,,,,,,,,,,,,,,,,,,,,,,novelaudio/59_tipoko2.wav,novelaudio/59_tipoko3.wav,1,,,,,,,,,,,,,,,,,j,0.42019,0,21,21,21,1,,,,,,,,,,,,,,,
,,,,,,,,pngimages/47_notebook.png,sarah,001,3456,2020-09-17_17h35.34.220,experiment,2020.1.3,Win32,60,,,,,,,,,,,,,,,,,test3,,,,,,,,,,,,,,,,,,,,,,,,,,,,,novelaudio/47_takiko2.wav,novelaudio/47_takiko3.wav,2,,,,,,,,,,,,,,,,,j,5.578245,0,22,22,22,1,,,,,,,,,,,,,,,
,,,,,,,,pngimages/28_grape.png,sarah,001,3456,2020-09-17_17h35.34.220,experiment,2020.1.3,Win32,60,,,,,,,,,,,,,,,,,test3,,,,,,,,,,,,,,,,,,,,,,,,,,,,,novelaudio/28_pipiki3.wav,novelaudio/28_pipiki1.wav,2,,,,,,,,,,,,,,,,,j,1.484385,0,23,23,23,1,,,,,,,,,,,,,,,
,,,,,,,,pngimages/64_shovel.png,sarah,001,3456,2020-09-17_17h35.34.220,experiment,2020.1.3,Win32,60,,,,,,,,,,,,,,,,,test3,,,,,,,,,,,,,,,,,,,,,,,,,,,,,novelaudio/64_popiti1.wav,novelaudio/64_popiti2.wav,1,,,,,,,,,,,,,,,,,j,1.851515,0,24,24,24,1,,,,,,,,,,,,,,,
,,,,,,,,pngimages/34_knife.png,sarah,001,3456,2020-09-17_17h35.34.220,experiment,2020.1.3,Win32,60,,,,,,,,,,,,,,,,,test3,,,,,,,,,,,,,,,,,,,,,,,,,,,,,novelaudio/34_kipaki1.wav,novelaudio/34_kipaki3.wav,1,,,,,,,,,,,,,,,,,f,0.47581,0,25,25,25,1,,,,,,,,,,,,,,,
,,,,,,,,pngimages/48_brush.png,sarah,001,3456,2020-09-17_17h35.34.220,experiment,2020.1.3,Win32,60,,,,,,,,,,,,,,,,,test3,,,,,,,,,,,,,,,,,,,,,,,,,,,,,novelaudio/48_pakipa1.wav,novelaudio/48_pakipa2.wav,2,,,,,,,,,,,,,,,,,j,1.063935,0,26,26,26,1,,,,,,,,,,,,,,,
,,,,,,,,pngimages/56_towel.png,sarah,001,3456,2020-09-17_17h35.34.220,experiment,2020.1.3,Win32,60,,,,,,,,,,,,,,,,,test3,,,,,,,,,,,,,,,,,,,,,,,,,,,,,novelaudio/56_pipiko2.wav,novelaudio/56_pipiko3.wav,2,,,,,,,,,,,,,,,,,f,0.25939,0,27,27,27,1,,,,,,,,,,,,,,,
,,,,,,,,pngimages/81_cat.png,sarah,001,3456,2020-09-17_17h35.34.220,experiment,2020.1.3,Win32,60,,,,,,,,,,,,,,,,,test3,,,,,,,,,,,,,,,,,,,,,,,,,,,,,novelaudio/81_kakapa1.wav,novelaudio/81_kakapa3.wav,1,,,,,,,,,,,,,,,,,j,0.799475,0,28,28,28,1,,,,,,,,,,,,,,,
,,,,,,,,pngimages/32_greenpepper.png,sarah,001,3456,2020-09-17_17h35.34.220,experiment,2020.1.3,Win32,60,,,,,,,,,,,,,,,,,test3,,,,,,,,,,,,,,,,,,,,,,,,,,,,,novelaudio/32_kipoto2.wav,novelaudio/32_kipoto3.wav,1,,,,,,,,,,,,,,,,,j,1.316835,0,29,29,29,1,,,,,,,,,,,,,,,
,,,,,,,,pngimages/57_flashlight.png,sarah,001,3456,2020-09-17_17h35.34.220,experiment,2020.1.3,Win32,60,,,,,,,,,,,,,,,,,test3,,,,,,,,,,,,,,,,,,,,,,,,,,,,,novelaudio/57_tipipa1.wav,novelaudio/57_tipipa2.wav,1,,,,,,,,,,,,,,,,,j,1.91836,0,30,30,30,1,,,,,,,,,,,,,,,
,,,,,,,,pngimages/78_cow.png,sarah,001,3456,2020-09-17_17h35.34.220,experiment,2020.1.3,Win32,60,,,,,,,,,,,,,,,,,test3,,,,,,,,,,,,,,,,,,,,,,,,,,,,,novelaudio/78_kakoka3.wav,novelaudio/78_kakoka2.wav,2,,,,,,,,,,,,,,,,,f,1.24076,0,31,31,31,1,,,,,,,,,,,,,,,
,,,,,,,,pngimages/61_key.png,sarah,001,3456,2020-09-17_17h35.34.220,experiment,2020.1.3,Win32,60,,,,,,,,,,,,,,,,,test3,,,,,,,,,,,,,,,,,,,,,,,,,,,,,novelaudio/61_pikati2.wav,novelaudio/61_pikati1.wav,2,,,,,,,,,,,,,,,,,f,1.26788,0,32,32,32,1,,,,,,,,,,,,,,,
,,,,,,,,pngimages/37_mug.png,sarah,001,3456,2020-09-17_17h35.34.220,experiment,2020.1.3,Win32,60,,,,,,,,,,,,,,,,,test3,,,,,,,,,,,,,,,,,,,,,,,,,,,,,novelaudio/37_kokiti3.wav,novelaudio/37_kokiti1.wav,2,,,,,,,,,,,,,,,,,f,0.61965,0,33,33,33,1,,,,,,,,,,,,,,,
,,,,,,,,pngimages/39_fork.png,sarah,001,3456,2020-09-17_17h35.34.220,experiment,2020.1.3,Win32,60,,,,,,,,,,,,,,,,,test3,,,,,,,,,,,,,,,,,,,,,,,,,,,,,novelaudio/39_kotipa3.wav,novelaudio/39_kotipa1.wav,2,,,,,,,,,,,,,,,,,j,0.70108,0,34,34,34,1,,,,,,,,,,,,,,,
,,,,,,,,pngimages/51_pencil.png,sarah,001,3456,2020-09-17_17h35.34.220,experiment,2020.1.3,Win32,60,,,,,,,,,,,,,,,,,test3,,,,,,,,,,,,,,,,,,,,,,,,,,,,,novelaudio/51_tapopa1.wav,novelaudio/51_tapopa2.wav,2,,,,,,,,,,,,,,,,,f,0.86672,0,35,35,35,1,,,,,,,,,,,,,,,
,,,,,,,,pngimages/36_microwave.png,sarah,001,3456,2020-09-17_17h35.34.220,experiment,2020.1.3,Win32,60,,,,,,,,,,,,,,,,,test3,,,,,,,,,,,,,,,,,,,,,,,,,,,,,novelaudio/36_pipapa1.wav,novelaudio/36_pipapa3.wav,1,,,,,,,,,,,,,,,,,j,0.60181,0,36,36,36,1,,,,,,,,,,,,,,,
,,,,,,,,pngimages/53_hammer.png,sarah,001,3456,2020-09-17_17h35.34.220,experiment,2020.1.3,Win32,60,,,,,,,,,,,,,,,,,test3,,,,,,,,,,,,,,,,,,,,,,,,,,,,,novelaudio/53_patapo2.wav,novelaudio/53_patapo3.wav,2,,,,,,,,,,,,,,,,,f,0.71938,0,37,37,37,1,,,,,,,,,,,,,,,
,,,,,,,,pngimages/38_plate.png,sarah,001,3456,2020-09-17_17h35.34.220,experiment,2020.1.3,Win32,60,,,,,,,,,,,,,,,,,test3,,,,,,,,,,,,,,,,,,,,,,,,,,,,,novelaudio/38_kokiko2.wav,novelaudio/38_kokiko1.wav,2,,,,,,,,,,,,,,,,,j,0.860555,0,38,38,38,1,,,,,,,,,,,,,,,
,,,,,,,,pngimages/74_boat.png,sarah,001,3456,2020-09-17_17h35.34.220,experiment,2020.1.3,Win32,60,,,,,,,,,,,,,,,,,test3,,,,,,,,,,,,,,,,,,,,,,,,,,,,,novelaudio/74_tatiko3.wav,novelaudio/74_tatiko1.wav,1,,,,,,,,,,,,,,,,,j,2.08177,0,39,39,39,1,,,,,,,,,,,,,,,
,,,,,,,,pngimages/63_chair.png,sarah,001,3456,2020-09-17_17h35.34.220,experiment,2020.1.3,Win32,60,,,,,,,,,,,,,,,,,test3,,,,,,,,,,,,,,,,,,,,,,,,,,,,,novelaudio/63_pitapa2.wav,novelaudio/63_pitapa1.wav,2,,,,,,,,,,,,,,,,,j,0.301145,0,40,40,40,1,,,,,,,,,,,,,,,
,,,,,,,,pngimages/77_bear.png,sarah,001,3456,2020-09-17_17h35.34.220,experiment,2020.1.3,Win32,60,,,,,,,,,,,,,,,,,test3,,,,,,,,,,,,,,,,,,,,,,,,,,,,,novelaudio/77_takopo3.wav,novelaudio/77_takopo2.wav,2,,,,,,,,,,,,,,,,,j,0.23391,0,41,41,41,1,,,,,,,,,,,,,,,
,,,,,,,,pngimages/52_newspaper.png,sarah,001,3456,2020-09-17_17h35.34.220,experiment,2020.1.3,Win32,60,,,,,,,,,,,,,,,,,test3,,,,,,,,,,,,,,,,,,,,,,,,,,,,,novelaudio/52_pakaki3.wav,novelaudio/52_pakaki2.wav,1,,,,,,,,,,,,,,,,,f,0.219715,0,42,42,42,1,,,,,,,,,,,,,,,
,,,,,,,,pngimages/30_mushroom.png,sarah,001,3456,2020-09-17_17h35.34.220,experiment,2020.1.3,Win32,60,,,,,,,,,,,,,,,,,test3,,,,,,,,,,,,,,,,,,,,,,,,,,,,,novelaudio/30_tikipa1.wav,novelaudio/30_tikipa3.wav,1,,,,,,,,,,,,,,,,,j,2.05341,0,43,43,43,1,,,,,,,,,,,,,,,
,,,,,,,,pngimages/70_hand.png,sarah,001,3456,2020-09-17_17h35.34.220,experiment,2020.1.3,Win32,60,,,,,,,,,,,,,,,,,test3,,,,,,,,,,,,,,,,,,,,,,,,,,,,,novelaudio/70_kopati3.wav,novelaudio/70_kopati1.wav,2,,,,,,,,,,,,,,,,,f,0.629205,0,44,44,44,1,,,,,,,,,,,,,,,
,,,,,,,,pngimages/60_firewood.png,sarah,001,3456,2020-09-17_17h35.34.220,experiment,2020.1.3,Win32,60,,,,,,,,,,,,,,,,,test3,,,,,,,,,,,,,,,,,,,,,,,,,,,,,novelaudio/60_pipopa2.wav,novelaudio/60_pipopa1.wav,1,,,,,,,,,,,,,,,,,j,0.924905,0,45,45,45,1,,,,,,,,,,,,,,,
,,,,,,,,pngimages/75_chicken.png,sarah,001,3456,2020-09-17_17h35.34.220,experiment,2020.1.3,Win32,60,,,,,,,,,,,,,,,,,test3,,,,,,,,,,,,,,,,,,,,,,,,,,,,,novelaudio/75_kakita3.wav,novelaudio/75_kakita2.wav,2,,,,,,,,,,,,,,,,,j,1.050015,0,46,46,46,1,,,,,,,,,,,,,,,
,,,,,,,,pngimages/54_toiletpaper.png,sarah,001,3456,2020-09-17_17h35.34.220,experiment,2020.1.3,Win32,60,,,,,,,,,,,,,,,,,test3,,,,,,,,,,,,,,,,,,,,,,,,,,,,,novelaudio/54_kapapa3.wav,novelaudio/54_kapapa1.wav,2,,,,,,,,,,,,,,,,,f,1.18199,0,47,47,47,1,,,,,,,,,,,,,,,
,,,,,,,,pngimages/71_eye.png,sarah,001,3456,2020-09-17_17h35.34.220,experiment,2020.1.3,Win32,60,,,,,,,,,,,,,,,,,test3,,,,,,,,,,,,,,,,,,,,,,,,,,,,,novelaudio/71_kotato2.wav,novelaudio/71_kotato1.wav,2,,,,,,,,,,,,,,,,,j,0.944035,0,48,48,48,1,,,,,,,,,,,,,,,
,,,,,,,,pngimages/42_harp.png,sarah,001,3456,2020-09-17_17h35.34.220,experiment,2020.1.3,Win32,60,,,,,,,,,,,,,,,,,test3,,,,,,,,,,,,,,,,,,,,,,,,,,,,,novelaudio/42_tokota1.wav,novelaudio/42_tokota2.wav,1,,,,,,,,,,,,,,,,,f,0.54492,0,49,49,49,1,,,,,,,,,,,,,,,
,,,,,,,,pngimages/66_safe.png,sarah,001,3456,2020-09-17_17h35.34.220,experiment,2020.1.3,Win32,60,,,,,,,,,,,,,,,,,test3,,,,,,,,,,,,,,,,,,,,,,,,,,,,,novelaudio/66_kopipa1.wav,novelaudio/66_kopipa3.wav,1,,,,,,,,,,,,,,,,,j,1.96494,0,50,50,50,1,,,,,,,,,,,,,,,
,,,,,,,,pngimages/73_car.png,sarah,001,3456,2020-09-17_17h35.34.220,experiment,2020.1.3,Win32,60,,,,,,,,,,,,,,,,,test3,,,,,,,,,,,,,,,,,,,,,,,,,,,,,novelaudio/73_takiti1.wav,novelaudio/73_takiti2.wav,2,,,,,,,,,,,,,,,,,j,1.838915,0,51,51,51,1,,,,,,,,,,,,,,,
,,,,,,,,pngimages/40_spoon.png,sarah,001,3456,2020-09-17_17h35.34.220,experiment,2020.1.3,Win32,60,,,,,,,,,,,,,,,,,test3,,,,,,,,,,,,,,,,,,,,,,,,,,,,,novelaudio/40_kototi2.wav,novelaudio/40_kototi1.wav,2,,,,,,,,,,,,,,,,,f,0.209115,0,52,52,52,1,,,,,,,,,,,,,,,
,,,,,,,,pngimages/76_rabbit.png,sarah,001,3456,2020-09-17_17h35.34.220,experiment,2020.1.3,Win32,60,,,,,,,,,,,,,,,,,test3,,,,,,,,,,,,,,,,,,,,,,,,,,,,,novelaudio/76_patoti2.wav,novelaudio/76_patoti1.wav,1,,,,,,,,,,,,,,,,,j,2.73437,0,53,53,53,1,,,,,,,,,,,,,,,
,,,,,,,,,sarah,001,3456,2020-09-17_17h35.34.220,experiment,2020.1.3,Win32,60,,,,,,,,,,,,,,,,,postTest,,,,,,,,,,,,,,,,,,,,,,,,,,,,,,,,,,,,,,,,,,,,,,,,,,,,,,,return,1.415815,f,0.10212,0,0,0,0,1,postTest/82_tipiko1.wav,postTest/82_tipiko1.wav,postTest/82_tipiko3.wav,audioA,,
,,,,,,,,,sarah,001,3456,2020-09-17_17h35.34.220,experiment,2020.1.3,Win32,60,,,,,,,,,,,,,,,,,postTest,,,,,,,,,,,,,,,,,,,,,,,,,,,,,,,,,,,,,,,,,,,,,,,,,,,,,,,,,f,0.170015,0,1,1,1,1,postTest/83_pitita3.wav,postTest/83_pitita3.wav,postTest/83_pitita2.wav,audioA,,
,,,,,,,,,sarah,001,3456,2020-09-17_17h35.34.220,experiment,2020.1.3,Win32,60,,,,,,,,,,,,,,,,,postTest,,,,,,,,,,,,,,,,,,,,,,,,,,,,,,,,,,,,,,,,,,,,,,,,,,,,,,,,,j,0.269595,0,2,2,2,1,postTest/84_pitoka3.wav,postTest/84_pitoka1.wav,postTest/84_pitoka1.wav,audioB,,
,,,,,,,,,sarah,001,3456,2020-09-17_17h35.34.220,experiment,2020.1.3,Win32,60,,,,,,,,,,,,,,,,,postTest,,,,,,,,,,,,,,,,,,,,,,,,,,,,,,,,,,,,,,,,,,,,,,,,,,,,,,,,,f,0.2207,0,3,3,3,1,postTest/85_kipata2.wav,postTest/85_kipata2.wav,postTest/85_kipata3.wav,audioA,,
,,,,,,,,,sarah,001,3456,2020-09-17_17h35.34.220,experiment,2020.1.3,Win32,60,,,,,,,,,,,,,,,,,postTest,,,,,,,,,,,,,,,,,,,,,,,,,,,,,,,,,,,,,,,,,,,,,,,,,,,,,,,,,j,1.001595,0,4,4,4,1,postTest/86_totipa2.wav,postTest/86_totipa1.wav,postTest/86_totipa1.wav,audioB,,
,,,,,,,,,sarah,001,3456,2020-09-17_17h35.34.220,experiment,2020.1.3,Win32,60,,,,,,,,,,,,,,,,,postTest,,,,,,,,,,,,,,,,,,,,,,,,,,,,,,,,,,,,,,,,,,,,,,,,,,,,,,,,,j,0.26568,0,5,5,5,1,postTest/87_kopoko1.wav,postTest/87_kopoko3.wav,postTest/87_kopoko3.wav,audioB,,
,,,,,,,,,sarah,001,3456,2020-09-17_17h35.34.220,experiment,2020.1.3,Win32,60,,,,,,,,,,,,,,,,,postTest,,,,,,,,,,,,,,,,,,,,,,,,,,,,,,,,,,,,,,,,,,,,,,,,,,,,,,,,,f,0.26893,0,6,6,6,1,postTest/88_pokota2.wav,postTest/88_pokota2.wav,postTest/88_pokota1.wav,audioA,,
,,,,,,,,,sarah,001,3456,2020-09-17_17h35.34.220,experiment,2020.1.3,Win32,60,,,,,,,,,,,,,,,,,postTest,,,,,,,,,,,,,,,,,,,,,,,,,,,,,,,,,,,,,,,,,,,,,,,,,,,,,,,,,j,0.103265,0,7,7,7,1,postTest/89_totako3.wav,postTest/89_totako2.wav,postTest/89_totako2.wav,audioB,,
,,,,,,,,,sarah,001,3456,2020-09-17_17h35.34.220,experiment,2020.1.3,Win32,60,,,,,,,,,,,,,,,,,postTest,,,,,,,,,,,,,,,,,,,,,,,,,,,,,,,,,,,,,,,,,,,,,,,,,,,,,,,,,j,0.835275,0,8,8,8,1,postTest/90_papiki2.wav,postTest/90_papiki3.wav,postTest/90_papiki3.wav,audioB,,
,,,,,,,,,sarah,001,3456,2020-09-17_17h35.34.220,experiment,2020.1.3,Win32,60,,,,,,,,,,,,,,,,,postTest,,,,,,,,,,,,,,,,,,,,,,,,,,,,,,,,,,,,,,,,,,,,,,,,,,,,,,,,,f,0.31991,0,9,9,9,1,postTest/91_papipo1.wav,postTest/91_papipo1.wav,postTest/91_papipo2.wav,audioA,,
,,,,,,,,,sarah,001,3456,2020-09-17_17h35.34.220,experiment,2020.1.3,Win32,60,,,,,,,,,,,,,,,,,postTest,,,,,,,,,,,,,,,,,,,,,,,,,,,,,,,,,,,,,,,,,,,,,,,,,,,,,,,,,j,0.06896,0,10,10,10,1,postTest/92_katoki1.wav,postTest/92_katoki2.wav,postTest/92_katoki2.wav,audioB,,
,,,,,,,,,sarah,001,3456,2020-09-17_17h35.34.220,experiment,2020.1.3,Win32,60,,,,,,,,,,,,,,,,,postTest,,,,,,,,,,,,,,,,,,,,,,,,,,,,,,,,,,,,,,,,,,,,,,,,,,,,,,,,,j,0.45161,0,11,11,11,1,postTest/93_pakopa3.wav,postTest/93_pakopa3.wav,postTest/93_pakopa1.wav,audioA,,
,,,,,,,,,sarah,001,3456,2020-09-17_17h35.34.220,experiment,2020.1.3,Win32,60,,,,,,,,,,,,,,,,,,,,,,,,,,,,,,,,,,,,,,,,,,,,,,,,,,,,,,,,,,,,,,,,,,,,,,,,,,,,,,,,,,,,,return,4.12124
