skipTrain1Type.keys,train1Words.thisRepN,train1Words.thisTrialN,train1Words.thisN,train1Words.thisIndex,train1Words.ran,audio,imageLoc,participant,ID Number,date,expName,psychopyVersion,OS,frameRate,train1QuestAdvance.keys,break_loop.thisRepN,break_loop.thisTrialN,break_loop.thisN,break_loop.thisIndex,break_loop.ran,train1Response.keys,train1Response.rt,train1Questions.thisRepN,train1Questions.thisTrialN,train1Questions.thisN,train1Questions.thisIndex,train1Questions.ran,audioTrue,imageTrue,currentPhase,imageFalse,truePos,falsePos,trial1phases.thisRepN,trial1phases.thisTrialN,trial1phases.thisN,trial1phases.thisIndex,trial1phases.ran,condFiles,testFiles,alltrain1.thisRepN,alltrain1.thisTrialN,alltrain1.thisN,alltrain1.thisIndex,alltrain1.ran,condFile,numWords,skipTrain1Type.rt,train1QuestAdvance.rt,skipTest1Instr.keys,skipTest1Instr.rt,key_resp.keys,key_resp.rt,test1Response.keys,test1Response.rt,test1Loop.thisRepN,test1Loop.thisTrialN,test1Loop.thisN,test1Loop.thisIndex,test1Loop.ran,firstAudio,secondAudio,whichAudio,feedback,skipTest2Instr.keys,skipTest2Instr.rt,key_resp_2.keys,key_resp_2.rt,test2Response.keys,test2Response.rt,test2Loop.thisRepN,test2Loop.thisTrialN,test2Loop.thisN,test2Loop.thisIndex,test2Loop.ran,skipTest3Instr.keys,skipTest3Instr.rt,test3Response.keys,test3Response.rt,test3Loop.thisRepN,test3Loop.thisTrialN,test3Loop.thisN,test3Loop.thisIndex,test3Loop.ran,skipPostTestInstr.keys,skipPostTestInstr.rt,postTestResponse.keys,postTestResponse.rt,postTestLoop.thisRepN,postTestLoop.thisTrialN,postTestLoop.thisN,postTestLoop.thisIndex,postTestLoop.ran,audioA,audioX,audioB,correctLabel,quit.keys,quit.rt
,0,0,0,0,1,trainingaudio/06_titoka1.wav,pngimages/06_tent.png,Tara McClenaghan,2023,2021-03-05_15h33.38.156,experiment,2020.1.3,Win32,60,,,,,,,,,,,,,,,,,,,,,,,,,,,,,,,,,,,,,,,,,,,,,,,,,,,,,,,,,,,,,,,,,,,,,,,,,,,,,,,,,,,,,
,,,,,,,,Tara McClenaghan,2023,2021-03-05_15h33.38.156,experiment,2020.1.3,Win32,60,,0,0,0,0,1,,,,,,,,,,,,,,,,,,,,,,,,,,,,,,,,,,,,,,,,,,,,,,,,,,,,,,,,,,,,,,,,,,,,,,,,,,,,,,,
,,,,,,,,Tara McClenaghan,2023,2021-03-05_15h33.38.156,experiment,2020.1.3,Win32,60,,,,,,,f,2.16687,0,0,0,0,1,trainingaudio/19_papipi2.wav,pngimages/19_burger.png,train1P1,pngimages/06_tent.png,-0.5,0.5,,,,,,,,,,,,,,,,,,,,,,,,,,,,,,,,,,,,,,,,,,,,,,,,,,,,,,,,,,,,,,,,,,
,,,,,,,,Tara McClenaghan,2023,2021-03-05_15h33.38.156,experiment,2020.1.3,Win32,60,,,,,,,,,,,,,,,,,,,,0,0,0,0,1,ioaConditions/train1P1Block1.xlsx,ioaConditions/train1P1Block1Test.xlsx,,,,,,,,,,,,,,,,,,,,,,,,,,,,,,,,,,,,,,,,,,,,,,,,,,,,,,,,,,,
,0,0,0,0,1,trainingaudio/23_patoko2.wav,pngimages/23_lemon.png,Tara McClenaghan,2023,2021-03-05_15h33.38.156,experiment,2020.1.3,Win32,60,,,,,,,,,,,,,,,,,,,,,,,,,,,,,,,,,,,,,,,,,,,,,,,,,,,,,,,,,,,,,,,,,,,,,,,,,,,,,,,,,,,,,
,,,,,,,,Tara McClenaghan,2023,2021-03-05_15h33.38.156,experiment,2020.1.3,Win32,60,,0,0,0,0,1,,,,,,,,,,,,,,,,,,,,,,,,,,,,,,,,,,,,,,,,,,,,,,,,,,,,,,,,,,,,,,,,,,,,,,,,,,,,,,,
,,,,,,,,Tara McClenaghan,2023,2021-03-05_15h33.38.156,experiment,2020.1.3,Win32,60,,,,,,,j,1.14305,0,0,0,0,1,trainingaudio/23_patoko2.wav,pngimages/23_lemon.png,train1P1,pngimages/22_egg.png,0.5,-0.5,,,,,,,,,,,,,,,,,,,,,,,,,,,,,,,,,,,,,,,,,,,,,,,,,,,,,,,,,,,,,,,,,,
,,,,,,,,Tara McClenaghan,2023,2021-03-05_15h33.38.156,experiment,2020.1.3,Win32,60,,,,,,,,,,,,,,,,,,,,0,1,1,1,1,ioaConditions/train1P1Block2.xlsx,ioaConditions/train1P1Block2Test.xlsx,,,,,,,,,,,,,,,,,,,,,,,,,,,,,,,,,,,,,,,,,,,,,,,,,,,,,,,,,,,
,0,0,0,0,1,trainingaudio/25_tapapi3.wav,pngimages/25_apple.png,Tara McClenaghan,2023,2021-03-05_15h33.38.156,experiment,2020.1.3,Win32,60,,,,,,,,,,,,,,,,,,,,,,,,,,,,,,,,,,,,,,,,,,,,,,,,,,,,,,,,,,,,,,,,,,,,,,,,,,,,,,,,,,,,,
,,,,,,,,Tara McClenaghan,2023,2021-03-05_15h33.38.156,experiment,2020.1.3,Win32,60,,0,0,0,0,1,,,,,,,,,,,,,,,,,,,,,,,,,,,,,,,,,,,,,,,,,,,,,,,,,,,,,,,,,,,,,,,,,,,,,,,,,,,,,,,
,,,,,,,,Tara McClenaghan,2023,2021-03-05_15h33.38.156,experiment,2020.1.3,Win32,60,,,,,,,j,1.36059,0,0,0,0,1,trainingaudio/26_kapako3.wav,pngimages/26_pineapple.png,train1P1,pngimages/25_apple.png,0.5,-0.5,,,,,,,,,,,,,,,,,,,,,,,,,,,,,,,,,,,,,,,,,,,,,,,,,,,,,,,,,,,,,,,,,,
,,,,,,,,Tara McClenaghan,2023,2021-03-05_15h33.38.156,experiment,2020.1.3,Win32,60,,,,,,,,,,,,,,,,,,,,0,2,2,2,1,ioaConditions/train1P1Block3.xlsx,ioaConditions/train1P1Block3Test.xlsx,,,,,,,,,,,,,,,,,,,,,,,,,,,,,,,,,,,,,,,,,,,,,,,,,,,,,,,,,,,
,0,0,0,0,1,trainingaudio/17_kotako1.wav,pngimages/17_cracker.png,Tara McClenaghan,2023,2021-03-05_15h33.38.156,experiment,2020.1.3,Win32,60,,,,,,,,,,,,,,,,,,,,,,,,,,,,,,,,,,,,,,,,,,,,,,,,,,,,,,,,,,,,,,,,,,,,,,,,,,,,,,,,,,,,,
,,,,,,,,Tara McClenaghan,2023,2021-03-05_15h33.38.156,experiment,2020.1.3,Win32,60,,0,0,0,0,1,,,,,,,,,,,,,,,,,,,,,,,,,,,,,,,,,,,,,,,,,,,,,,,,,,,,,,,,,,,,,,,,,,,,,,,,,,,,,,,
,,,,,,,,Tara McClenaghan,2023,2021-03-05_15h33.38.156,experiment,2020.1.3,Win32,60,,,,,,,j,1.39343,0,0,0,0,1,trainingaudio/18_popata1.wav,pngimages/18_donut.png,train1P1,pngimages/17_cracker.png,0.5,-0.5,,,,,,,,,,,,,,,,,,,,,,,,,,,,,,,,,,,,,,,,,,,,,,,,,,,,,,,,,,,,,,,,,,
,,,,,,,,Tara McClenaghan,2023,2021-03-05_15h33.38.156,experiment,2020.1.3,Win32,60,,,,,,,,,,,,,,,,,,,,0,3,3,3,1,ioaConditions/train1P1Block4.xlsx,ioaConditions/train1P1Block4Test.xlsx,,,,,,,,,,,,,,,,,,,,,,,,,,,,,,,,,,,,,,,,,,,,,,,,,,,,,,,,,,,
,0,0,0,0,1,trainingaudio/09_tipata1.wav,pngimages/09_plane.png,Tara McClenaghan,2023,2021-03-05_15h33.38.156,experiment,2020.1.3,Win32,60,,,,,,,,,,,,,,,,,,,,,,,,,,,,,,,,,,,,,,,,,,,,,,,,,,,,,,,,,,,,,,,,,,,,,,,,,,,,,,,,,,,,,
,,,,,,,,Tara McClenaghan,2023,2021-03-05_15h33.38.156,experiment,2020.1.3,Win32,60,,0,0,0,0,1,,,,,,,,,,,,,,,,,,,,,,,,,,,,,,,,,,,,,,,,,,,,,,,,,,,,,,,,,,,,,,,,,,,,,,,,,,,,,,,
,,,,,,,,Tara McClenaghan,2023,2021-03-05_15h33.38.156,experiment,2020.1.3,Win32,60,,,,,,,j,1.09143,0,0,0,0,1,trainingaudio/24_takopa2.wav,pngimages/24_banana.png,train1P1,pngimages/09_plane.png,0.5,-0.5,,,,,,,,,,,,,,,,,,,,,,,,,,,,,,,,,,,,,,,,,,,,,,,,,,,,,,,,,,,,,,,,,,
,,,,,,,,Tara McClenaghan,2023,2021-03-05_15h33.38.156,experiment,2020.1.3,Win32,60,,,,,,,,,,,,,,,,,,,,0,4,4,4,1,ioaConditions/train1P1Block5.xlsx,ioaConditions/train1P1Block5Test.xlsx,,,,,,,,,,,,,,,,,,,,,,,,,,,,,,,,,,,,,,,,,,,,,,,,,,,,,,,,,,,
,0,0,0,0,1,trainingaudio/08_tipako1.wav,pngimages/08_bell.png,Tara McClenaghan,2023,2021-03-05_15h33.38.156,experiment,2020.1.3,Win32,60,,,,,,,,,,,,,,,,,,,,,,,,,,,,,,,,,,,,,,,,,,,,,,,,,,,,,,,,,,,,,,,,,,,,,,,,,,,,,,,,,,,,,
,,,,,,,,Tara McClenaghan,2023,2021-03-05_15h33.38.156,experiment,2020.1.3,Win32,60,,0,0,0,0,1,,,,,,,,,,,,,,,,,,,,,,,,,,,,,,,,,,,,,,,,,,,,,,,,,,,,,,,,,,,,,,,,,,,,,,,,,,,,,,,
,,,,,,,,Tara McClenaghan,2023,2021-03-05_15h33.38.156,experiment,2020.1.3,Win32,60,,,,,,,f,0.97161,0,0,0,0,1,trainingaudio/08_tipako1.wav,pngimages/08_bell.png,train1P1,pngimages/03_box.png,-0.5,0.5,,,,,,,,,,,,,,,,,,,,,,,,,,,,,,,,,,,,,,,,,,,,,,,,,,,,,,,,,,,,,,,,,,
,,,,,,,,Tara McClenaghan,2023,2021-03-05_15h33.38.156,experiment,2020.1.3,Win32,60,,,,,,,,,,,,,,,,,,,,0,5,5,5,1,ioaConditions/train1P1Block6.xlsx,ioaConditions/train1P1Block6Test.xlsx,,,,,,,,,,,,,,,,,,,,,,,,,,,,,,,,,,,,,,,,,,,,,,,,,,,,,,,,,,,
,0,0,0,0,1,trainingaudio/10_tokiti2.wav,pngimages/10_backpack.png,Tara McClenaghan,2023,2021-03-05_15h33.38.156,experiment,2020.1.3,Win32,60,,,,,,,,,,,,,,,,,,,,,,,,,,,,,,,,,,,,,,,,,,,,,,,,,,,,,,,,,,,,,,,,,,,,,,,,,,,,,,,,,,,,,
,,,,,,,,Tara McClenaghan,2023,2021-03-05_15h33.38.156,experiment,2020.1.3,Win32,60,,0,0,0,0,1,,,,,,,,,,,,,,,,,,,,,,,,,,,,,,,,,,,,,,,,,,,,,,,,,,,,,,,,,,,,,,,,,,,,,,,,,,,,,,,
,,,,,,,,Tara McClenaghan,2023,2021-03-05_15h33.38.156,experiment,2020.1.3,Win32,60,,,,,,,j,1.284415,0,0,0,0,1,trainingaudio/13_kopopi3.wav,pngimages/13_toast.png,train1P1,pngimages/10_backpack.png,0.5,-0.5,,,,,,,,,,,,,,,,,,,,,,,,,,,,,,,,,,,,,,,,,,,,,,,,,,,,,,,,,,,,,,,,,,
,,,,,,,,Tara McClenaghan,2023,2021-03-05_15h33.38.156,experiment,2020.1.3,Win32,60,,,,,,,,,,,,,,,,,,,,0,6,6,6,1,ioaConditions/train1P1Block7.xlsx,ioaConditions/train1P1Block7Test.xlsx,,,,,,,,,,,,,,,,,,,,,,,,,,,,,,,,,,,,,,,,,,,,,,,,,,,,,,,,,,,
,0,0,0,0,1,trainingaudio/04_kitoti1.wav,pngimages/04_ladder.png,Tara McClenaghan,2023,2021-03-05_15h33.38.156,experiment,2020.1.3,Win32,60,,,,,,,,,,,,,,,,,,,,,,,,,,,,,,,,,,,,,,,,,,,,,,,,,,,,,,,,,,,,,,,,,,,,,,,,,,,,,,,,,,,,,
,,,,,,,,Tara McClenaghan,2023,2021-03-05_15h33.38.156,experiment,2020.1.3,Win32,60,,0,0,0,0,1,,,,,,,,,,,,,,,,,,,,,,,,,,,,,,,,,,,,,,,,,,,,,,,,,,,,,,,,,,,,,,,,,,,,,,,,,,,,,,,
,,,,,,,,Tara McClenaghan,2023,2021-03-05_15h33.38.156,experiment,2020.1.3,Win32,60,,,,,,,f,0.964195,0,0,0,0,1,trainingaudio/12_pokika2.wav,pngimages/12_pie.png,train1P1,pngimages/04_ladder.png,-0.5,0.5,,,,,,,,,,,,,,,,,,,,,,,,,,,,,,,,,,,,,,,,,,,,,,,,,,,,,,,,,,,,,,,,,,
,,,,,,,,Tara McClenaghan,2023,2021-03-05_15h33.38.156,experiment,2020.1.3,Win32,60,,,,,,,,,,,,,,,,,,,,0,7,7,7,1,ioaConditions/train1P1Block8.xlsx,ioaConditions/train1P1Block8Test.xlsx,,,,,,,,,,,,,,,,,,,,,,,,,,,,,,,,,,,,,,,,,,,,,,,,,,,,,,,,,,,
,0,0,0,0,1,trainingaudio/07_pitapi1.wav,pngimages/07_suitcase.png,Tara McClenaghan,2023,2021-03-05_15h33.38.156,experiment,2020.1.3,Win32,60,,,,,,,,,,,,,,,,,,,,,,,,,,,,,,,,,,,,,,,,,,,,,,,,,,,,,,,,,,,,,,,,,,,,,,,,,,,,,,,,,,,,,
,,,,,,,,Tara McClenaghan,2023,2021-03-05_15h33.38.156,experiment,2020.1.3,Win32,60,,0,0,0,0,1,,,,,,,,,,,,,,,,,,,,,,,,,,,,,,,,,,,,,,,,,,,,,,,,,,,,,,,,,,,,,,,,,,,,,,,,,,,,,,,
,,,,,,,,Tara McClenaghan,2023,2021-03-05_15h33.38.156,experiment,2020.1.3,Win32,60,,,,,,,f,0.924085,0,0,0,0,1,trainingaudio/02_pitito1.wav,pngimages/02_pallet.png,train1P1,pngimages/07_suitcase.png,-0.5,0.5,,,,,,,,,,,,,,,,,,,,,,,,,,,,,,,,,,,,,,,,,,,,,,,,,,,,,,,,,,,,,,,,,,
,,,,,,,,Tara McClenaghan,2023,2021-03-05_15h33.38.156,experiment,2020.1.3,Win32,60,,,,,,,,,,,,,,,,,,,,0,8,8,8,1,ioaConditions/train1P1Block9.xlsx,ioaConditions/train1P1Block9Test.xlsx,,,,,,,,,,,,,,,,,,,,,,,,,,,,,,,,,,,,,,,,,,,,,,,,,,,,,,,,,,,
,0,0,0,0,1,trainingaudio/01_kitipi1.wav,pngimages/01_gift.png,Tara McClenaghan,2023,2021-03-05_15h33.38.156,experiment,2020.1.3,Win32,60,,,,,,,,,,,,,,,,,,,,,,,,,,,,,,,,,,,,,,,,,,,,,,,,,,,,,,,,,,,,,,,,,,,,,,,,,,,,,,,,,,,,,
,,,,,,,,Tara McClenaghan,2023,2021-03-05_15h33.38.156,experiment,2020.1.3,Win32,60,,0,0,0,0,1,,,,,,,,,,,,,,,,,,,,,,,,,,,,,,,,,,,,,,,,,,,,,,,,,,,,,,,,,,,,,,,,,,,,,,,,,,,,,,,
,,,,,,,,Tara McClenaghan,2023,2021-03-05_15h33.38.156,experiment,2020.1.3,Win32,60,,,,,,,f,1.246025,0,0,0,0,1,trainingaudio/01_kitipi1.wav,pngimages/01_gift.png,train1P1,pngimages/21_cheese.png,-0.5,0.5,,,,,,,,,,,,,,,,,,,,,,,,,,,,,,,,,,,,,,,,,,,,,,,,,,,,,,,,,,,,,,,,,,
,,,,,,,,Tara McClenaghan,2023,2021-03-05_15h33.38.156,experiment,2020.1.3,Win32,60,,,,,,,,,,,,,,,,,,,,0,9,9,9,1,ioaConditions/train1P1Block10.xlsx,ioaConditions/train1P1Block10Test.xlsx,,,,,,,,,,,,,,,,,,,,,,,,,,,,,,,,,,,,,,,,,,,,,,,,,,,,,,,,,,,
,0,0,0,0,1,trainingaudio/27_pakapa1.wav,pngimages/27_kiwi.png,Tara McClenaghan,2023,2021-03-05_15h33.38.156,experiment,2020.1.3,Win32,60,,,,,,,,,,,,,,,,,,,,,,,,,,,,,,,,,,,,,,,,,,,,,,,,,,,,,,,,,,,,,,,,,,,,,,,,,,,,,,,,,,,,,
,,,,,,,,Tara McClenaghan,2023,2021-03-05_15h33.38.156,experiment,2020.1.3,Win32,60,,0,0,0,0,1,,,,,,,,,,,,,,,,,,,,,,,,,,,,,,,,,,,,,,,,,,,,,,,,,,,,,,,,,,,,,,,,,,,,,,,,,,,,,,,
,,,,,,,,Tara McClenaghan,2023,2021-03-05_15h33.38.156,experiment,2020.1.3,Win32,60,,,,,,,j,1.338255,0,0,0,0,1,trainingaudio/27_pakapa1.wav,pngimages/27_kiwi.png,train1P1,pngimages/15_barrel.png,0.5,-0.5,,,,,,,,,,,,,,,,,,,,,,,,,,,,,,,,,,,,,,,,,,,,,,,,,,,,,,,,,,,,,,,,,,
,,,,,,,,Tara McClenaghan,2023,2021-03-05_15h33.38.156,experiment,2020.1.3,Win32,60,,,,,,,,,,,,,,,,,,,,0,10,10,10,1,ioaConditions/train1P1Block11.xlsx,ioaConditions/train1P1Block11Test.xlsx,,,,,,,,,,,,,,,,,,,,,,,,,,,,,,,,,,,,,,,,,,,,,,,,,,,,,,,,,,,
,0,0,0,0,1,trainingaudio/05_titopo1.wav,pngimages/05_megaphone.png,Tara McClenaghan,2023,2021-03-05_15h33.38.156,experiment,2020.1.3,Win32,60,,,,,,,,,,,,,,,,,,,,,,,,,,,,,,,,,,,,,,,,,,,,,,,,,,,,,,,,,,,,,,,,,,,,,,,,,,,,,,,,,,,,,
,,,,,,,,Tara McClenaghan,2023,2021-03-05_15h33.38.156,experiment,2020.1.3,Win32,60,,0,0,0,0,1,,,,,,,,,,,,,,,,,,,,,,,,,,,,,,,,,,,,,,,,,,,,,,,,,,,,,,,,,,,,,,,,,,,,,,,,,,,,,,,
,,,,,,,,Tara McClenaghan,2023,2021-03-05_15h33.38.156,experiment,2020.1.3,Win32,60,,,,,,,j,1.09657,0,0,0,0,1,trainingaudio/16_kokapi3.wav,pngimages/16_icecream.png,train1P1,pngimages/05_megaphone.png,0.5,-0.5,,,,,,,,,,,,,,,,,,,,,,,,,,,,,,,,,,,,,,,,,,,,,,,,,,,,,,,,,,,,,,,,,,
,,,,,,,,Tara McClenaghan,2023,2021-03-05_15h33.38.156,experiment,2020.1.3,Win32,60,,,,,,,,,,,,,,,,,,,,0,11,11,11,1,ioaConditions/train1P1Block12.xlsx,ioaConditions/train1P1Block12Test.xlsx,,,,,,,,,,,,,,,,,,,,,,,,,,,,,,,,,,,,,,,,,,,,,,,,,,,,,,,,,,,
,0,0,0,0,1,trainingaudio/11_tokiko2.wav,pngimages/11_compass.png,Tara McClenaghan,2023,2021-03-05_15h33.38.156,experiment,2020.1.3,Win32,60,,,,,,,,,,,,,,,,,,,,,,,,,,,,,,,,,,,,,,,,,,,,,,,,,,,,,,,,,,,,,,,,,,,,,,,,,,,,,,,,,,,,,
,,,,,,,,Tara McClenaghan,2023,2021-03-05_15h33.38.156,experiment,2020.1.3,Win32,60,,0,0,0,0,1,,,,,,,,,,,,,,,,,,,,,,,,,,,,,,,,,,,,,,,,,,,,,,,,,,,,,,,,,,,,,,,,,,,,,,,,,,,,,,,
,,,,,,,,Tara McClenaghan,2023,2021-03-05_15h33.38.156,experiment,2020.1.3,Win32,60,,,,,,,j,1.59308,0,0,0,0,1,trainingaudio/20_tatito2.wav,pngimages/20_pizza.png,train1P1,pngimages/11_compass.png,0.5,-0.5,,,,,,,,,,,,,,,,,,,,,,,,,,,,,,,,,,,,,,,,,,,,,,,,,,,,,,,,,,,,,,,,,,
,,,,,,,,Tara McClenaghan,2023,2021-03-05_15h33.38.156,experiment,2020.1.3,Win32,60,,,,,,,,,,,,,,,,,,,,0,12,12,12,1,ioaConditions/train1P1Block13.xlsx,ioaConditions/train1P1Block13Test.xlsx,,,,,,,,,,,,,,,,,,,,,,,,,,,,,,,,,,,,,,,,,,,,,,,,,,,,,,,,,,,
,0,0,0,0,1,trainingaudio/14_pokoto1.wav,pngimages/14_coffee.png,Tara McClenaghan,2023,2021-03-05_15h33.38.156,experiment,2020.1.3,Win32,60,,,,,,,,,,,,,,,,,,,,,,,,,,,,,,,,,,,,,,,,,,,,,,,,,,,,,,,,,,,,,,,,,,,,,,,,,,,,,,,,,,,,,
,,,,,,,,Tara McClenaghan,2023,2021-03-05_15h33.38.156,experiment,2020.1.3,Win32,60,,0,0,0,0,1,,,,,,,,,,,,,,,,,,,,,,,,,,,,,,,,,,,,,,,,,,,,,,,,,,,,,,,,,,,,,,,,,,,,,,,,,,,,,,,
,,,,,,,,Tara McClenaghan,2023,2021-03-05_15h33.38.156,experiment,2020.1.3,Win32,60,,,,,,,j,1.12995,0,0,0,0,1,trainingaudio/14_pokoto1.wav,pngimages/14_coffee.png,train1P1,pngimages/94_house.png,0.5,-0.5,,,,,,,,,,,,,,,,,,,,,,,,,,,,,,,,,,,,,,,,,,,,,,,,,,,,,,,,,,,,,,,,,,
,,,,,,,,Tara McClenaghan,2023,2021-03-05_15h33.38.156,experiment,2020.1.3,Win32,60,,,,,,,,,,,,,,,,,,,,,,,,,,,0,0,0,0,1,ioaConditions/train1P1LoopCondition.xlsx,two,,,,,,,,,,,,,,,,,,,,,,,,,,,,,,,,,,,,,,,,,,,,,,,,,,,,
j,0,0,0,0,1,trainingaudio/09_tipata1.wav,pngimages/09_plane.png,Tara McClenaghan,2023,2021-03-05_15h33.38.156,experiment,2020.1.3,Win32,60,,,,,,,,,,,,,,,,,,,,,,,,,,,,,,,,,,5.63292,,,,,,,,,,,,,,,,,,,,,,,,,,,,,,,,,,,,,,,,,,,,,,,,,,,
,0,1,1,1,1,trainingaudio/15_kopota1.wav,pngimages/15_barrel.png,Tara McClenaghan,2023,2021-03-05_15h33.38.156,experiment,2020.1.3,Win32,60,,,,,,,,,,,,,,,,,,,,,,,,,,,,,,,,,,,,,,,,,,,,,,,,,,,,,,,,,,,,,,,,,,,,,,,,,,,,,,,,,,,,,
,0,2,2,2,1,trainingaudio/14_pokoto1.wav,pngimages/14_coffee.png,Tara McClenaghan,2023,2021-03-05_15h33.38.156,experiment,2020.1.3,Win32,60,,,,,,,,,,,,,,,,,,,,,,,,,,,,,,,,,,,,,,,,,,,,,,,,,,,,,,,,,,,,,,,,,,,,,,,,,,,,,,,,,,,,,
,,,,,,,,Tara McClenaghan,2023,2021-03-05_15h33.38.156,experiment,2020.1.3,Win32,60,g,0,0,0,0,1,,,,,,,,,,,,,,,,,,,,,,,,,,,,,3.77487,,,,,,,,,,,,,,,,,,,,,,,,,,,,,,,,,,,,,,,,,,,,,,,,,,
,,,,,,,,Tara McClenaghan,2023,2021-03-05_15h33.38.156,experiment,2020.1.3,Win32,60,,,,,,,j,1.060455,0,0,0,0,1,trainingaudio/09_tipata1.wav,pngimages/09_plane.png,train1P2,pngimages/19_burger.png,0.5,-0.5,,,,,,,,,,,,,,,,,,,,,,,,,,,,,,,,,,,,,,,,,,,,,,,,,,,,,,,,,,,,,,,,,,
,,,,,,,,Tara McClenaghan,2023,2021-03-05_15h33.38.156,experiment,2020.1.3,Win32,60,,,,,,,f,1.302085,0,1,1,1,1,trainingaudio/15_kopota1.wav,pngimages/15_barrel.png,train1P2,pngimages/14_coffee.png,-0.5,0.5,,,,,,,,,,,,,,,,,,,,,,,,,,,,,,,,,,,,,,,,,,,,,,,,,,,,,,,,,,,,,,,,,,
,,,,,,,,Tara McClenaghan,2023,2021-03-05_15h33.38.156,experiment,2020.1.3,Win32,60,,,,,,,,,,,,,,,,,,,,0,0,0,0,1,ioaConditions/train1P2Block1.xlsx,ioaConditions/train1P2Block1Test.xlsx,,,,,,,,,,,,,,,,,,,,,,,,,,,,,,,,,,,,,,,,,,,,,,,,,,,,,,,,,,,
,0,0,0,0,1,trainingaudio/16_kokapi3.wav,pngimages/16_icecream.png,Tara McClenaghan,2023,2021-03-05_15h33.38.156,experiment,2020.1.3,Win32,60,,,,,,,,,,,,,,,,,,,,,,,,,,,,,,,,,,,,,,,,,,,,,,,,,,,,,,,,,,,,,,,,,,,,,,,,,,,,,,,,,,,,,
,0,1,1,1,1,trainingaudio/26_kapako3.wav,pngimages/26_pineapple.png,Tara McClenaghan,2023,2021-03-05_15h33.38.156,experiment,2020.1.3,Win32,60,,,,,,,,,,,,,,,,,,,,,,,,,,,,,,,,,,,,,,,,,,,,,,,,,,,,,,,,,,,,,,,,,,,,,,,,,,,,,,,,,,,,,
,0,2,2,2,1,trainingaudio/17_kotako1.wav,pngimages/17_cracker.png,Tara McClenaghan,2023,2021-03-05_15h33.38.156,experiment,2020.1.3,Win32,60,,,,,,,,,,,,,,,,,,,,,,,,,,,,,,,,,,,,,,,,,,,,,,,,,,,,,,,,,,,,,,,,,,,,,,,,,,,,,,,,,,,,,
,,,,,,,,Tara McClenaghan,2023,2021-03-05_15h33.38.156,experiment,2020.1.3,Win32,60,,0,0,0,0,1,,,,,,,,,,,,,,,,,,,,,,,,,,,,,,,,,,,,,,,,,,,,,,,,,,,,,,,,,,,,,,,,,,,,,,,,,,,,,,,
,,,,,,,,Tara McClenaghan,2023,2021-03-05_15h33.38.156,experiment,2020.1.3,Win32,60,,,,,,,f,1.15776,0,0,0,0,1,trainingaudio/11_tokiko2.wav,pngimages/11_compass.png,train1P2,pngimages/26_pineapple.png,-0.5,0.5,,,,,,,,,,,,,,,,,,,,,,,,,,,,,,,,,,,,,,,,,,,,,,,,,,,,,,,,,,,,,,,,,,
,,,,,,,,Tara McClenaghan,2023,2021-03-05_15h33.38.156,experiment,2020.1.3,Win32,60,,,,,,,f,5.22315,0,1,1,1,1,trainingaudio/17_kotako1.wav,pngimages/17_cracker.png,train1P2,pngimages/16_icecream.png,-0.5,0.5,,,,,,,,,,,,,,,,,,,,,,,,,,,,,,,,,,,,,,,,,,,,,,,,,,,,,,,,,,,,,,,,,,
,,,,,,,,Tara McClenaghan,2023,2021-03-05_15h33.38.156,experiment,2020.1.3,Win32,60,,,,,,,,,,,,,,,,,,,,0,1,1,1,1,ioaConditions/train1P2Block2.xlsx,ioaConditions/train1P2Block2Test.xlsx,,,,,,,,,,,,,,,,,,,,,,,,,,,,,,,,,,,,,,,,,,,,,,,,,,,,,,,,,,,
,0,0,0,0,1,trainingaudio/08_tipako1.wav,pngimages/08_bell.png,Tara McClenaghan,2023,2021-03-05_15h33.38.156,experiment,2020.1.3,Win32,60,,,,,,,,,,,,,,,,,,,,,,,,,,,,,,,,,,,,,,,,,,,,,,,,,,,,,,,,,,,,,,,,,,,,,,,,,,,,,,,,,,,,,
,0,1,1,1,1,trainingaudio/07_pitapi1.wav,pngimages/07_suitcase.png,Tara McClenaghan,2023,2021-03-05_15h33.38.156,experiment,2020.1.3,Win32,60,,,,,,,,,,,,,,,,,,,,,,,,,,,,,,,,,,,,,,,,,,,,,,,,,,,,,,,,,,,,,,,,,,,,,,,,,,,,,,,,,,,,,
,0,2,2,2,1,trainingaudio/03_kikita1.wav,pngimages/03_box.png,Tara McClenaghan,2023,2021-03-05_15h33.38.156,experiment,2020.1.3,Win32,60,,,,,,,,,,,,,,,,,,,,,,,,,,,,,,,,,,,,,,,,,,,,,,,,,,,,,,,,,,,,,,,,,,,,,,,,,,,,,,,,,,,,,
,,,,,,,,Tara McClenaghan,2023,2021-03-05_15h33.38.156,experiment,2020.1.3,Win32,60,,0,0,0,0,1,,,,,,,,,,,,,,,,,,,,,,,,,,,,,,,,,,,,,,,,,,,,,,,,,,,,,,,,,,,,,,,,,,,,,,,,,,,,,,,
,,,,,,,,Tara McClenaghan,2023,2021-03-05_15h33.38.156,experiment,2020.1.3,Win32,60,,,,,,,j,1.25876,0,0,0,0,1,trainingaudio/07_pitapi1.wav,pngimages/07_suitcase.png,train1P2,pngimages/08_bell.png,0.5,-0.5,,,,,,,,,,,,,,,,,,,,,,,,,,,,,,,,,,,,,,,,,,,,,,,,,,,,,,,,,,,,,,,,,,
,,,,,,,,Tara McClenaghan,2023,2021-03-05_15h33.38.156,experiment,2020.1.3,Win32,60,,,,,,,j,2.80755,0,1,1,1,1,trainingaudio/03_kikita1.wav,pngimages/03_box.png,train1P2,pngimages/01_gift.png,-0.5,0.5,,,,,,,,,,,,,,,,,,,,,,,,,,,,,,,,,,,,,,,,,,,,,,,,,,,,,,,,,,,,,,,,,,
,,,,,,,,Tara McClenaghan,2023,2021-03-05_15h33.38.156,experiment,2020.1.3,Win32,60,,,,,,,,,,,,,,,,,,,,0,2,2,2,1,ioaConditions/train1P2Block3.xlsx,ioaConditions/train1P2Block3Test.xlsx,,,,,,,,,,,,,,,,,,,,,,,,,,,,,,,,,,,,,,,,,,,,,,,,,,,,,,,,,,,
,0,0,0,0,1,trainingaudio/12_pokika2.wav,pngimages/12_pie.png,Tara McClenaghan,2023,2021-03-05_15h33.38.156,experiment,2020.1.3,Win32,60,,,,,,,,,,,,,,,,,,,,,,,,,,,,,,,,,,,,,,,,,,,,,,,,,,,,,,,,,,,,,,,,,,,,,,,,,,,,,,,,,,,,,
,0,1,1,1,1,trainingaudio/22_kakoki3.wav,pngimages/22_egg.png,Tara McClenaghan,2023,2021-03-05_15h33.38.156,experiment,2020.1.3,Win32,60,,,,,,,,,,,,,,,,,,,,,,,,,,,,,,,,,,,,,,,,,,,,,,,,,,,,,,,,,,,,,,,,,,,,,,,,,,,,,,,,,,,,,
,0,2,2,2,1,trainingaudio/04_kitoti1.wav,pngimages/04_ladder.png,Tara McClenaghan,2023,2021-03-05_15h33.38.156,experiment,2020.1.3,Win32,60,,,,,,,,,,,,,,,,,,,,,,,,,,,,,,,,,,,,,,,,,,,,,,,,,,,,,,,,,,,,,,,,,,,,,,,,,,,,,,,,,,,,,
,,,,,,,,Tara McClenaghan,2023,2021-03-05_15h33.38.156,experiment,2020.1.3,Win32,60,,0,0,0,0,1,,,,,,,,,,,,,,,,,,,,,,,,,,,,,,,,,,,,,,,,,,,,,,,,,,,,,,,,,,,,,,,,,,,,,,,,,,,,,,,
,,,,,,,,Tara McClenaghan,2023,2021-03-05_15h33.38.156,experiment,2020.1.3,Win32,60,,,,,,,j,2.27133,0,0,0,0,1,trainingaudio/04_kitoti1.wav,pngimages/04_ladder.png,train1P2,pngimages/12_pie.png,0.5,-0.5,,,,,,,,,,,,,,,,,,,,,,,,,,,,,,,,,,,,,,,,,,,,,,,,,,,,,,,,,,,,,,,,,,
,,,,,,,,Tara McClenaghan,2023,2021-03-05_15h33.38.156,experiment,2020.1.3,Win32,60,,,,,,,f,1.12274,0,1,1,1,1,trainingaudio/22_kakoki3.wav,pngimages/22_egg.png,train1P2,pngimages/02_pallet.png,-0.5,0.5,,,,,,,,,,,,,,,,,,,,,,,,,,,,,,,,,,,,,,,,,,,,,,,,,,,,,,,,,,,,,,,,,,
,,,,,,,,Tara McClenaghan,2023,2021-03-05_15h33.38.156,experiment,2020.1.3,Win32,60,,,,,,,,,,,,,,,,,,,,0,3,3,3,1,ioaConditions/train1P2Block4.xlsx,ioaConditions/train1P2Block4Test.xlsx,,,,,,,,,,,,,,,,,,,,,,,,,,,,,,,,,,,,,,,,,,,,,,,,,,,,,,,,,,,
,0,0,0,0,1,trainingaudio/23_patoko2.wav,pngimages/23_lemon.png,Tara McClenaghan,2023,2021-03-05_15h33.38.156,experiment,2020.1.3,Win32,60,,,,,,,,,,,,,,,,,,,,,,,,,,,,,,,,,,,,,,,,,,,,,,,,,,,,,,,,,,,,,,,,,,,,,,,,,,,,,,,,,,,,,
,0,1,1,1,1,trainingaudio/10_tokiti2.wav,pngimages/10_backpack.png,Tara McClenaghan,2023,2021-03-05_15h33.38.156,experiment,2020.1.3,Win32,60,,,,,,,,,,,,,,,,,,,,,,,,,,,,,,,,,,,,,,,,,,,,,,,,,,,,,,,,,,,,,,,,,,,,,,,,,,,,,,,,,,,,,
,0,2,2,2,1,trainingaudio/20_tatito2.wav,pngimages/20_pizza.png,Tara McClenaghan,2023,2021-03-05_15h33.38.156,experiment,2020.1.3,Win32,60,,,,,,,,,,,,,,,,,,,,,,,,,,,,,,,,,,,,,,,,,,,,,,,,,,,,,,,,,,,,,,,,,,,,,,,,,,,,,,,,,,,,,
,,,,,,,,Tara McClenaghan,2023,2021-03-05_15h33.38.156,experiment,2020.1.3,Win32,60,,0,0,0,0,1,,,,,,,,,,,,,,,,,,,,,,,,,,,,,,,,,,,,,,,,,,,,,,,,,,,,,,,,,,,,,,,,,,,,,,,,,,,,,,,
,,,,,,,,Tara McClenaghan,2023,2021-03-05_15h33.38.156,experiment,2020.1.3,Win32,60,,,,,,,f,4.36156,0,0,0,0,1,trainingaudio/10_tokiti2.wav,pngimages/10_backpack.png,train1P2,pngimages/23_lemon.png,0.5,-0.5,,,,,,,,,,,,,,,,,,,,,,,,,,,,,,,,,,,,,,,,,,,,,,,,,,,,,,,,,,,,,,,,,,
,,,,,,,,Tara McClenaghan,2023,2021-03-05_15h33.38.156,experiment,2020.1.3,Win32,60,,,,,,,f,2.257,0,1,1,1,1,trainingaudio/25_tapapi3.wav,pngimages/25_apple.png,train1P2,pngimages/20_pizza.png,-0.5,0.5,,,,,,,,,,,,,,,,,,,,,,,,,,,,,,,,,,,,,,,,,,,,,,,,,,,,,,,,,,,,,,,,,,
,,,,,,,,Tara McClenaghan,2023,2021-03-05_15h33.38.156,experiment,2020.1.3,Win32,60,,,,,,,,,,,,,,,,,,,,0,4,4,4,1,ioaConditions/train1P2Block5.xlsx,ioaConditions/train1P2Block5Test.xlsx,,,,,,,,,,,,,,,,,,,,,,,,,,,,,,,,,,,,,,,,,,,,,,,,,,,,,,,,,,,
,0,0,0,0,1,trainingaudio/18_popata1.wav,pngimages/18_donut.png,Tara McClenaghan,2023,2021-03-05_15h33.38.156,experiment,2020.1.3,Win32,60,,,,,,,,,,,,,,,,,,,,,,,,,,,,,,,,,,,,,,,,,,,,,,,,,,,,,,,,,,,,,,,,,,,,,,,,,,,,,,,,,,,,,
,0,1,1,1,1,trainingaudio/06_titoka1.wav,pngimages/06_tent.png,Tara McClenaghan,2023,2021-03-05_15h33.38.156,experiment,2020.1.3,Win32,60,,,,,,,,,,,,,,,,,,,,,,,,,,,,,,,,,,,,,,,,,,,,,,,,,,,,,,,,,,,,,,,,,,,,,,,,,,,,,,,,,,,,,
,0,2,2,2,1,trainingaudio/21_papika2.wav,pngimages/21_cheese.png,Tara McClenaghan,2023,2021-03-05_15h33.38.156,experiment,2020.1.3,Win32,60,,,,,,,,,,,,,,,,,,,,,,,,,,,,,,,,,,,,,,,,,,,,,,,,,,,,,,,,,,,,,,,,,,,,,,,,,,,,,,,,,,,,,
,,,,,,,,Tara McClenaghan,2023,2021-03-05_15h33.38.156,experiment,2020.1.3,Win32,60,,0,0,0,0,1,,,,,,,,,,,,,,,,,,,,,,,,,,,,,,,,,,,,,,,,,,,,,,,,,,,,,,,,,,,,,,,,,,,,,,,,,,,,,,,
,,,,,,,,Tara McClenaghan,2023,2021-03-05_15h33.38.156,experiment,2020.1.3,Win32,60,,,,,,,j,1.49426,0,0,0,0,1,trainingaudio/21_papika2.wav,pngimages/21_cheese.png,train1P2,pngimages/18_donut.png,-0.5,0.5,,,,,,,,,,,,,,,,,,,,,,,,,,,,,,,,,,,,,,,,,,,,,,,,,,,,,,,,,,,,,,,,,,
,,,,,,,,Tara McClenaghan,2023,2021-03-05_15h33.38.156,experiment,2020.1.3,Win32,60,,,,,,,f,1.03687,0,1,1,1,1,trainingaudio/06_titoka1.wav,pngimages/06_tent.png,train1P2,pngimages/27_kiwi.png,-0.5,0.5,,,,,,,,,,,,,,,,,,,,,,,,,,,,,,,,,,,,,,,,,,,,,,,,,,,,,,,,,,,,,,,,,,
,,,,,,,,Tara McClenaghan,2023,2021-03-05_15h33.38.156,experiment,2020.1.3,Win32,60,,,,,,,,,,,,,,,,,,,,0,5,5,5,1,ioaConditions/train1P2Block6.xlsx,ioaConditions/train1P2Block6Test.xlsx,,,,,,,,,,,,,,,,,,,,,,,,,,,,,,,,,,,,,,,,,,,,,,,,,,,,,,,,,,,
,0,0,0,0,1,trainingaudio/24_takopa2.wav,pngimages/24_banana.png,Tara McClenaghan,2023,2021-03-05_15h33.38.156,experiment,2020.1.3,Win32,60,,,,,,,,,,,,,,,,,,,,,,,,,,,,,,,,,,,,,,,,,,,,,,,,,,,,,,,,,,,,,,,,,,,,,,,,,,,,,,,,,,,,,
,0,1,1,1,1,trainingaudio/13_kopopi3.wav,pngimages/13_toast.png,Tara McClenaghan,2023,2021-03-05_15h33.38.156,experiment,2020.1.3,Win32,60,,,,,,,,,,,,,,,,,,,,,,,,,,,,,,,,,,,,,,,,,,,,,,,,,,,,,,,,,,,,,,,,,,,,,,,,,,,,,,,,,,,,,
,0,2,2,2,1,trainingaudio/05_titopo1.wav,pngimages/05_megaphone.png,Tara McClenaghan,2023,2021-03-05_15h33.38.156,experiment,2020.1.3,Win32,60,,,,,,,,,,,,,,,,,,,,,,,,,,,,,,,,,,,,,,,,,,,,,,,,,,,,,,,,,,,,,,,,,,,,,,,,,,,,,,,,,,,,,
,,,,,,,,Tara McClenaghan,2023,2021-03-05_15h33.38.156,experiment,2020.1.3,Win32,60,,0,0,0,0,1,,,,,,,,,,,,,,,,,,,,,,,,,,,,,,,,,,,,,,,,,,,,,,,,,,,,,,,,,,,,,,,,,,,,,,,,,,,,,,,
,,,,,,,,Tara McClenaghan,2023,2021-03-05_15h33.38.156,experiment,2020.1.3,Win32,60,,,,,,,j,0.827205,0,0,0,0,1,trainingaudio/94_kipipi1.wav,pngimages/94_house.png,train1P2,pngimages/24_banana.png,0.5,-0.5,,,,,,,,,,,,,,,,,,,,,,,,,,,,,,,,,,,,,,,,,,,,,,,,,,,,,,,,,,,,,,,,,,
,,,,,,,,Tara McClenaghan,2023,2021-03-05_15h33.38.156,experiment,2020.1.3,Win32,60,,,,,,,f,1.02905,0,1,1,1,1,trainingaudio/05_titopo1.wav,pngimages/05_megaphone.png,train1P2,pngimages/13_toast.png,-0.5,0.5,,,,,,,,,,,,,,,,,,,,,,,,,,,,,,,,,,,,,,,,,,,,,,,,,,,,,,,,,,,,,,,,,,
,,,,,,,pngimages/04_ladder.png,Tara McClenaghan,2023,2021-03-05_15h33.38.156,experiment,2020.1.3,Win32,60,,,,,,,,,,,,,,,,test1,,,,,,,,,,,,,,,,,,,,f,4.3342,d,6.150715,j,0.657175,0,0,0,0,1,trainingaudio/04_kitoti2.wav,trainingaudio/04_kitoti1.wav,2,trainingaudio/04_kitoti1.wav,,,,,,,,,,,,,,,,,,,,,,,,,,,,,,,,,,,
,,,,,,,pngimages/12_pie.png,Tara McClenaghan,2023,2021-03-05_15h33.38.156,experiment,2020.1.3,Win32,60,,,,,,,,,,,,,,,,test1,,,,,,,,,,,,,,,,,,,,,,,,j,2.9765,0,1,1,1,1,trainingaudio/12_pokika1.wav,trainingaudio/12_pokika2.wav,2,trainingaudio/12_pokika2.wav,,,,,,,,,,,,,,,,,,,,,,,,,,,,,,,,,,,
,,,,,,,pngimages/02_pallet.png,Tara McClenaghan,2023,2021-03-05_15h33.38.156,experiment,2020.1.3,Win32,60,,,,,,,,,,,,,,,,test1,,,,,,,,,,,,,,,,,,,,,,,,f,0.95864,0,2,2,2,1,trainingaudio/02_pitito1.wav,trainingaudio/02_pitito2.wav,1,trainingaudio/02_pitito1.wav,,,,,,,,,,,,,,,,,,,,,,,,,,,,,,,,,,,
,,,,,,,pngimages/20_pizza.png,Tara McClenaghan,2023,2021-03-05_15h33.38.156,experiment,2020.1.3,Win32,60,,,,,,,,,,,,,,,,test1,,,,,,,,,,,,,,,,,,,,,,,,f,2.327035,0,3,3,3,1,trainingaudio/20_tatito1.wav,trainingaudio/20_tatito2.wav,2,trainingaudio/20_tatito2.wav,,,,,,,,,,,,,,,,,,,,,,,,,,,,,,,,,,,
,,,,,,,pngimages/24_banana.png,Tara McClenaghan,2023,2021-03-05_15h33.38.156,experiment,2020.1.3,Win32,60,,,,,,,,,,,,,,,,test1,,,,,,,,,,,,,,,,,,,,,,,,j,1.096155,0,4,4,4,1,trainingaudio/24_takopa1.wav,trainingaudio/24_takopa2.wav,2,trainingaudio/24_takopa2.wav,,,,,,,,,,,,,,,,,,,,,,,,,,,,,,,,,,,
,,,,,,,pngimages/09_plane.png,Tara McClenaghan,2023,2021-03-05_15h33.38.156,experiment,2020.1.3,Win32,60,,,,,,,,,,,,,,,,test1,,,,,,,,,,,,,,,,,,,,,,,,j,0.8982,0,5,5,5,1,trainingaudio/09_tipata2.wav,trainingaudio/09_tipata1.wav,2,trainingaudio/09_tipata1.wav,,,,,,,,,,,,,,,,,,,,,,,,,,,,,,,,,,,
,,,,,,,pngimages/14_coffee.png,Tara McClenaghan,2023,2021-03-05_15h33.38.156,experiment,2020.1.3,Win32,60,,,,,,,,,,,,,,,,test1,,,,,,,,,,,,,,,,,,,,,,,,j,1.64238,0,6,6,6,1,trainingaudio/14_pokoto3.wav,trainingaudio/14_pokoto1.wav,2,trainingaudio/14_pokoto1.wav,,,,,,,,,,,,,,,,,,,,,,,,,,,,,,,,,,,
,,,,,,,pngimages/15_barrel.png,Tara McClenaghan,2023,2021-03-05_15h33.38.156,experiment,2020.1.3,Win32,60,,,,,,,,,,,,,,,,test1,,,,,,,,,,,,,,,,,,,,,,,,f,0.933145,0,7,7,7,1,trainingaudio/15_kopota1.wav,trainingaudio/15_kopota3.wav,1,trainingaudio/15_kopota1.wav,,,,,,,,,,,,,,,,,,,,,,,,,,,,,,,,,,,
,,,,,,,pngimages/27_kiwi.png,Tara McClenaghan,2023,2021-03-05_15h33.38.156,experiment,2020.1.3,Win32,60,,,,,,,,,,,,,,,,test1,,,,,,,,,,,,,,,,,,,,,,,,j,1.00742,0,8,8,8,1,trainingaudio/27_pakapa3.wav,trainingaudio/27_pakapa1.wav,2,trainingaudio/27_pakapa1.wav,,,,,,,,,,,,,,,,,,,,,,,,,,,,,,,,,,,
,,,,,,,pngimages/22_egg.png,Tara McClenaghan,2023,2021-03-05_15h33.38.156,experiment,2020.1.3,Win32,60,,,,,,,,,,,,,,,,test1,,,,,,,,,,,,,,,,,,,,,,,,f,0.923055,0,9,9,9,1,trainingaudio/22_kakoki3.wav,trainingaudio/22_kakoki2.wav,1,trainingaudio/22_kakoki3.wav,,,,,,,,,,,,,,,,,,,,,,,,,,,,,,,,,,,
,,,,,,,pngimages/18_donut.png,Tara McClenaghan,2023,2021-03-05_15h33.38.156,experiment,2020.1.3,Win32,60,,,,,,,,,,,,,,,,test1,,,,,,,,,,,,,,,,,,,,,,,,f,1.378495,0,10,10,10,1,trainingaudio/18_popata1.wav,trainingaudio/18_popata3.wav,1,trainingaudio/18_popata1.wav,,,,,,,,,,,,,,,,,,,,,,,,,,,,,,,,,,,
,,,,,,,pngimages/13_toast.png,Tara McClenaghan,2023,2021-03-05_15h33.38.156,experiment,2020.1.3,Win32,60,,,,,,,,,,,,,,,,test1,,,,,,,,,,,,,,,,,,,,,,,,j,1.931185,0,11,11,11,1,trainingaudio/13_kopopi3.wav,trainingaudio/13_kopopi1.wav,1,trainingaudio/13_kopopi3.wav,,,,,,,,,,,,,,,,,,,,,,,,,,,,,,,,,,,
,,,,,,,pngimages/06_tent.png,Tara McClenaghan,2023,2021-03-05_15h33.38.156,experiment,2020.1.3,Win32,60,,,,,,,,,,,,,,,,test1,,,,,,,,,,,,,,,,,,,,,,,,j,2.218915,0,12,12,12,1,trainingaudio/06_titoka1.wav,trainingaudio/06_titoka2.wav,1,trainingaudio/06_titoka1.wav,,,,,,,,,,,,,,,,,,,,,,,,,,,,,,,,,,,
,,,,,,,pngimages/11_compass.png,Tara McClenaghan,2023,2021-03-05_15h33.38.156,experiment,2020.1.3,Win32,60,,,,,,,,,,,,,,,,test1,,,,,,,,,,,,,,,,,,,,,,,,f,1.94527,0,13,13,13,1,trainingaudio/11_tokiko3.wav,trainingaudio/11_tokiko2.wav,2,trainingaudio/11_tokiko2.wav,,,,,,,,,,,,,,,,,,,,,,,,,,,,,,,,,,,
,,,,,,,pngimages/05_megaphone.png,Tara McClenaghan,2023,2021-03-05_15h33.38.156,experiment,2020.1.3,Win32,60,,,,,,,,,,,,,,,,test1,,,,,,,,,,,,,,,,,,,,,,,,f,0.89065,0,14,14,14,1,trainingaudio/05_titopo1.wav,trainingaudio/05_titopo3.wav,1,trainingaudio/05_titopo1.wav,,,,,,,,,,,,,,,,,,,,,,,,,,,,,,,,,,,
,,,,,,,pngimages/94_house.png,Tara McClenaghan,2023,2021-03-05_15h33.38.156,experiment,2020.1.3,Win32,60,,,,,,,,,,,,,,,,test1,,,,,,,,,,,,,,,,,,,,,,,,f,0.439315,0,15,15,15,1,trainingaudio/94_kipipi1.wav,trainingaudio/94_kipipi2.wav,1,trainingaudio/94_kipipi1.wav,,,,,,,,,,,,,,,,,,,,,,,,,,,,,,,,,,,
,,,,,,,pngimages/07_suitcase.png,Tara McClenaghan,2023,2021-03-05_15h33.38.156,experiment,2020.1.3,Win32,60,,,,,,,,,,,,,,,,test1,,,,,,,,,,,,,,,,,,,,,,,,f,1.36211,0,16,16,16,1,trainingaudio/07_pitapi1.wav,trainingaudio/07_pitapi3.wav,1,trainingaudio/07_pitapi1.wav,,,,,,,,,,,,,,,,,,,,,,,,,,,,,,,,,,,
,,,,,,,pngimages/25_apple.png,Tara McClenaghan,2023,2021-03-05_15h33.38.156,experiment,2020.1.3,Win32,60,,,,,,,,,,,,,,,,test1,,,,,,,,,,,,,,,,,,,,,,,,j,0.94511,0,17,17,17,1,trainingaudio/25_tapapi1.wav,trainingaudio/25_tapapi3.wav,2,trainingaudio/25_tapapi3.wav,,,,,,,,,,,,,,,,,,,,,,,,,,,,,,,,,,,
,,,,,,,pngimages/03_box.png,Tara McClenaghan,2023,2021-03-05_15h33.38.156,experiment,2020.1.3,Win32,60,,,,,,,,,,,,,,,,test1,,,,,,,,,,,,,,,,,,,,,,,,f,1.229415,0,18,18,18,1,trainingaudio/03_kikita3.wav,trainingaudio/03_kikita1.wav,2,trainingaudio/03_kikita1.wav,,,,,,,,,,,,,,,,,,,,,,,,,,,,,,,,,,,
,,,,,,,pngimages/01_gift.png,Tara McClenaghan,2023,2021-03-05_15h33.38.156,experiment,2020.1.3,Win32,60,,,,,,,,,,,,,,,,test1,,,,,,,,,,,,,,,,,,,,,,,,j,1.939965,0,19,19,19,1,trainingaudio/01_kitipi2.wav,trainingaudio/01_kitipi1.wav,2,trainingaudio/01_kitipi1.wav,,,,,,,,,,,,,,,,,,,,,,,,,,,,,,,,,,,
,,,,,,,pngimages/26_pineapple.png,Tara McClenaghan,2023,2021-03-05_15h33.38.156,experiment,2020.1.3,Win32,60,,,,,,,,,,,,,,,,test1,,,,,,,,,,,,,,,,,,,,,,,,f,0.744405,0,20,20,20,1,trainingaudio/26_kapako1.wav,trainingaudio/26_kapako3.wav,2,trainingaudio/26_kapako3.wav,,,,,,,,,,,,,,,,,,,,,,,,,,,,,,,,,,,
,,,,,,,pngimages/10_backpack.png,Tara McClenaghan,2023,2021-03-05_15h33.38.156,experiment,2020.1.3,Win32,60,,,,,,,,,,,,,,,,test1,,,,,,,,,,,,,,,,,,,,,,,,j,1.09102,0,21,21,21,1,trainingaudio/10_tokiti3.wav,trainingaudio/10_tokiti2.wav,2,trainingaudio/10_tokiti2.wav,,,,,,,,,,,,,,,,,,,,,,,,,,,,,,,,,,,
,,,,,,,pngimages/21_cheese.png,Tara McClenaghan,2023,2021-03-05_15h33.38.156,experiment,2020.1.3,Win32,60,,,,,,,,,,,,,,,,test1,,,,,,,,,,,,,,,,,,,,,,,,f,1.21412,0,22,22,22,1,trainingaudio/21_papika2.wav,trainingaudio/21_papika3.wav,1,trainingaudio/21_papika2.wav,,,,,,,,,,,,,,,,,,,,,,,,,,,,,,,,,,,
,,,,,,,pngimages/19_burger.png,Tara McClenaghan,2023,2021-03-05_15h33.38.156,experiment,2020.1.3,Win32,60,,,,,,,,,,,,,,,,test1,,,,,,,,,,,,,,,,,,,,,,,,f,1.390105,0,23,23,23,1,trainingaudio/19_papipi2.wav,trainingaudio/19_papipi3.wav,1,trainingaudio/19_papipi2.wav,,,,,,,,,,,,,,,,,,,,,,,,,,,,,,,,,,,
,,,,,,,pngimages/17_cracker.png,Tara McClenaghan,2023,2021-03-05_15h33.38.156,experiment,2020.1.3,Win32,60,,,,,,,,,,,,,,,,test1,,,,,,,,,,,,,,,,,,,,,,,,f,0.676135,0,24,24,24,1,trainingaudio/17_kotako2.wav,trainingaudio/17_kotako1.wav,2,trainingaudio/17_kotako1.wav,,,,,,,,,,,,,,,,,,,,,,,,,,,,,,,,,,,
,,,,,,,pngimages/16_icecream.png,Tara McClenaghan,2023,2021-03-05_15h33.38.156,experiment,2020.1.3,Win32,60,,,,,,,,,,,,,,,,test1,,,,,,,,,,,,,,,,,,,,,,,,j,1.11384,0,25,25,25,1,trainingaudio/16_kokapi1.wav,trainingaudio/16_kokapi3.wav,2,trainingaudio/16_kokapi3.wav,,,,,,,,,,,,,,,,,,,,,,,,,,,,,,,,,,,
,,,,,,,pngimages/23_lemon.png,Tara McClenaghan,2023,2021-03-05_15h33.38.156,experiment,2020.1.3,Win32,60,,,,,,,,,,,,,,,,test1,,,,,,,,,,,,,,,,,,,,,,,,j,2.440635,0,26,26,26,1,trainingaudio/23_patoko1.wav,trainingaudio/23_patoko2.wav,2,trainingaudio/23_patoko2.wav,,,,,,,,,,,,,,,,,,,,,,,,,,,,,,,,,,,
,,,,,,,pngimages/08_bell.png,Tara McClenaghan,2023,2021-03-05_15h33.38.156,experiment,2020.1.3,Win32,60,,,,,,,,,,,,,,,,test1,,,,,,,,,,,,,,,,,,,,,,,,f,1.426565,0,27,27,27,1,trainingaudio/08_tipako1.wav,trainingaudio/08_tipako3.wav,1,trainingaudio/08_tipako1.wav,,,,,,,,,,,,,,,,,,,,,,,,,,,,,,,,,,,
,,,,,,,pngimages/27_kiwi.png,Tara McClenaghan,2023,2021-03-05_15h33.38.156,experiment,2020.1.3,Win32,60,,,,,,,,,,,,,,,,test1,,,,,,,,,,,,,,,,,,,,,,,,j,2.75574,0,28,28,28,1,trainingaudio/27_pakapa2.wav,trainingaudio/27_pakapa1.wav,2,trainingaudio/27_pakapa1.wav,,,,,,,,,,,,,,,,,,,,,,,,,,,,,,,,,,,
,,,,,,,pngimages/20_pizza.png,Tara McClenaghan,2023,2021-03-05_15h33.38.156,experiment,2020.1.3,Win32,60,,,,,,,,,,,,,,,,test1,,,,,,,,,,,,,,,,,,,,,,,,j,1.42321,0,29,29,29,1,trainingaudio/20_tatito3.wav,trainingaudio/20_tatito2.wav,2,trainingaudio/20_tatito2.wav,,,,,,,,,,,,,,,,,,,,,,,,,,,,,,,,,,,
,,,,,,,pngimages/12_pie.png,Tara McClenaghan,2023,2021-03-05_15h33.38.156,experiment,2020.1.3,Win32,60,,,,,,,,,,,,,,,,test1,,,,,,,,,,,,,,,,,,,,,,,,j,1.46065,0,30,30,30,1,trainingaudio/12_pokika2.wav,trainingaudio/12_pokika1.wav,1,trainingaudio/12_pokika2.wav,,,,,,,,,,,,,,,,,,,,,,,,,,,,,,,,,,,
,,,,,,,pngimages/01_gift.png,Tara McClenaghan,2023,2021-03-05_15h33.38.156,experiment,2020.1.3,Win32,60,,,,,,,,,,,,,,,,test1,,,,,,,,,,,,,,,,,,,,,,,,f,1.670425,0,31,31,31,1,trainingaudio/01_kitipi3.wav,trainingaudio/01_kitipi1.wav,2,trainingaudio/01_kitipi1.wav,,,,,,,,,,,,,,,,,,,,,,,,,,,,,,,,,,,
,,,,,,,pngimages/09_plane.png,Tara McClenaghan,2023,2021-03-05_15h33.38.156,experiment,2020.1.3,Win32,60,,,,,,,,,,,,,,,,test1,,,,,,,,,,,,,,,,,,,,,,,,j,0.45831,0,32,32,32,1,trainingaudio/09_tipata3.wav,trainingaudio/09_tipata1.wav,2,trainingaudio/09_tipata1.wav,,,,,,,,,,,,,,,,,,,,,,,,,,,,,,,,,,,
,,,,,,,pngimages/25_apple.png,Tara McClenaghan,2023,2021-03-05_15h33.38.156,experiment,2020.1.3,Win32,60,,,,,,,,,,,,,,,,test1,,,,,,,,,,,,,,,,,,,,,,,,f,0.73227,0,33,33,33,1,trainingaudio/25_tapapi2.wav,trainingaudio/25_tapapi3.wav,2,trainingaudio/25_tapapi3.wav,,,,,,,,,,,,,,,,,,,,,,,,,,,,,,,,,,,
,,,,,,,pngimages/02_pallet.png,Tara McClenaghan,2023,2021-03-05_15h33.38.156,experiment,2020.1.3,Win32,60,,,,,,,,,,,,,,,,test1,,,,,,,,,,,,,,,,,,,,,,,,f,0.9249,0,34,34,34,1,trainingaudio/02_pitito1.wav,trainingaudio/02_pitito3.wav,1,trainingaudio/02_pitito1.wav,,,,,,,,,,,,,,,,,,,,,,,,,,,,,,,,,,,
,,,,,,,pngimages/08_bell.png,Tara McClenaghan,2023,2021-03-05_15h33.38.156,experiment,2020.1.3,Win32,60,,,,,,,,,,,,,,,,test1,,,,,,,,,,,,,,,,,,,,,,,,f,0.57651,0,35,35,35,1,trainingaudio/08_tipako1.wav,trainingaudio/08_tipako2.wav,1,trainingaudio/08_tipako1.wav,,,,,,,,,,,,,,,,,,,,,,,,,,,,,,,,,,,
,,,,,,,pngimages/15_barrel.png,Tara McClenaghan,2023,2021-03-05_15h33.38.156,experiment,2020.1.3,Win32,60,,,,,,,,,,,,,,,,test1,,,,,,,,,,,,,,,,,,,,,,,,j,1.30809,0,36,36,36,1,trainingaudio/15_kopota2.wav,trainingaudio/15_kopota1.wav,2,trainingaudio/15_kopota1.wav,,,,,,,,,,,,,,,,,,,,,,,,,,,,,,,,,,,
,,,,,,,pngimages/24_banana.png,Tara McClenaghan,2023,2021-03-05_15h33.38.156,experiment,2020.1.3,Win32,60,,,,,,,,,,,,,,,,test1,,,,,,,,,,,,,,,,,,,,,,,,j,0.309755,0,37,37,37,1,trainingaudio/24_takopa3.wav,trainingaudio/24_takopa2.wav,2,trainingaudio/24_takopa2.wav,,,,,,,,,,,,,,,,,,,,,,,,,,,,,,,,,,,
,,,,,,,pngimages/06_tent.png,Tara McClenaghan,2023,2021-03-05_15h33.38.156,experiment,2020.1.3,Win32,60,,,,,,,,,,,,,,,,test1,,,,,,,,,,,,,,,,,,,,,,,,j,2.433205,0,38,38,38,1,trainingaudio/06_titoka3.wav,trainingaudio/06_titoka1.wav,2,trainingaudio/06_titoka1.wav,,,,,,,,,,,,,,,,,,,,,,,,,,,,,,,,,,,
,,,,,,,pngimages/16_icecream.png,Tara McClenaghan,2023,2021-03-05_15h33.38.156,experiment,2020.1.3,Win32,60,,,,,,,,,,,,,,,,test1,,,,,,,,,,,,,,,,,,,,,,,,f,0.734075,0,39,39,39,1,trainingaudio/16_kokapi3.wav,trainingaudio/16_kokapi2.wav,1,trainingaudio/16_kokapi3.wav,,,,,,,,,,,,,,,,,,,,,,,,,,,,,,,,,,,
,,,,,,,pngimages/04_ladder.png,Tara McClenaghan,2023,2021-03-05_15h33.38.156,experiment,2020.1.3,Win32,60,,,,,,,,,,,,,,,,test1,,,,,,,,,,,,,,,,,,,,,,,,j,0.253465,0,40,40,40,1,trainingaudio/04_kitoti2.wav,trainingaudio/04_kitoti1.wav,2,trainingaudio/04_kitoti1.wav,,,,,,,,,,,,,,,,,,,,,,,,,,,,,,,,,,,
,,,,,,,pngimages/22_egg.png,Tara McClenaghan,2023,2021-03-05_15h33.38.156,experiment,2020.1.3,Win32,60,,,,,,,,,,,,,,,,test1,,,,,,,,,,,,,,,,,,,,,,,,j,0.313615,0,41,41,41,1,trainingaudio/22_kakoki1.wav,trainingaudio/22_kakoki3.wav,2,trainingaudio/22_kakoki3.wav,,,,,,,,,,,,,,,,,,,,,,,,,,,,,,,,,,,
,,,,,,,pngimages/17_cracker.png,Tara McClenaghan,2023,2021-03-05_15h33.38.156,experiment,2020.1.3,Win32,60,,,,,,,,,,,,,,,,test1,,,,,,,,,,,,,,,,,,,,,,,,f,0.4119,0,42,42,42,1,trainingaudio/17_kotako1.wav,trainingaudio/17_kotako3.wav,1,trainingaudio/17_kotako1.wav,,,,,,,,,,,,,,,,,,,,,,,,,,,,,,,,,,,
,,,,,,,pngimages/13_toast.png,Tara McClenaghan,2023,2021-03-05_15h33.38.156,experiment,2020.1.3,Win32,60,,,,,,,,,,,,,,,,test1,,,,,,,,,,,,,,,,,,,,,,,,f,1.48381,0,43,43,43,1,trainingaudio/13_kopopi2.wav,trainingaudio/13_kopopi3.wav,2,trainingaudio/13_kopopi3.wav,,,,,,,,,,,,,,,,,,,,,,,,,,,,,,,,,,,
,,,,,,,pngimages/94_house.png,Tara McClenaghan,2023,2021-03-05_15h33.38.156,experiment,2020.1.3,Win32,60,,,,,,,,,,,,,,,,test1,,,,,,,,,,,,,,,,,,,,,,,,j,0.279745,0,44,44,44,1,trainingaudio/94_kipipi2.wav,trainingaudio/94_kipipi1.wav,2,trainingaudio/94_kipipi1.wav,,,,,,,,,,,,,,,,,,,,,,,,,,,,,,,,,,,
,,,,,,,pngimages/07_suitcase.png,Tara McClenaghan,2023,2021-03-05_15h33.38.156,experiment,2020.1.3,Win32,60,,,,,,,,,,,,,,,,test1,,,,,,,,,,,,,,,,,,,,,,,,f,0.506475,0,45,45,45,1,trainingaudio/07_pitapi1.wav,trainingaudio/07_pitapi3.wav,1,trainingaudio/07_pitapi1.wav,,,,,,,,,,,,,,,,,,,,,,,,,,,,,,,,,,,
,,,,,,,pngimages/10_backpack.png,Tara McClenaghan,2023,2021-03-05_15h33.38.156,experiment,2020.1.3,Win32,60,,,,,,,,,,,,,,,,test1,,,,,,,,,,,,,,,,,,,,,,,,j,2.497125,0,46,46,46,1,trainingaudio/10_tokiti3.wav,trainingaudio/10_tokiti2.wav,2,trainingaudio/10_tokiti2.wav,,,,,,,,,,,,,,,,,,,,,,,,,,,,,,,,,,,
,,,,,,,pngimages/19_burger.png,Tara McClenaghan,2023,2021-03-05_15h33.38.156,experiment,2020.1.3,Win32,60,,,,,,,,,,,,,,,,test1,,,,,,,,,,,,,,,,,,,,,,,,j,0.39465,0,47,47,47,1,trainingaudio/19_papipi3.wav,trainingaudio/19_papipi2.wav,2,trainingaudio/19_papipi2.wav,,,,,,,,,,,,,,,,,,,,,,,,,,,,,,,,,,,
,,,,,,,pngimages/18_donut.png,Tara McClenaghan,2023,2021-03-05_15h33.38.156,experiment,2020.1.3,Win32,60,,,,,,,,,,,,,,,,test1,,,,,,,,,,,,,,,,,,,,,,,,f,0.423665,0,48,48,48,1,trainingaudio/18_popata1.wav,trainingaudio/18_popata3.wav,1,trainingaudio/18_popata1.wav,,,,,,,,,,,,,,,,,,,,,,,,,,,,,,,,,,,
,,,,,,,pngimages/11_compass.png,Tara McClenaghan,2023,2021-03-05_15h33.38.156,experiment,2020.1.3,Win32,60,,,,,,,,,,,,,,,,test1,,,,,,,,,,,,,,,,,,,,,,,,j,1.095945,0,49,49,49,1,trainingaudio/11_tokiko2.wav,trainingaudio/11_tokiko1.wav,1,trainingaudio/11_tokiko2.wav,,,,,,,,,,,,,,,,,,,,,,,,,,,,,,,,,,,
,,,,,,,pngimages/21_cheese.png,Tara McClenaghan,2023,2021-03-05_15h33.38.156,experiment,2020.1.3,Win32,60,,,,,,,,,,,,,,,,test1,,,,,,,,,,,,,,,,,,,,,,,,j,0.411515,0,50,50,50,1,trainingaudio/21_papika2.wav,trainingaudio/21_papika3.wav,1,trainingaudio/21_papika2.wav,,,,,,,,,,,,,,,,,,,,,,,,,,,,,,,,,,,
,,,,,,,pngimages/05_megaphone.png,Tara McClenaghan,2023,2021-03-05_15h33.38.156,experiment,2020.1.3,Win32,60,,,,,,,,,,,,,,,,test1,,,,,,,,,,,,,,,,,,,,,,,,f,0.32479,0,51,51,51,1,trainingaudio/05_titopo1.wav,trainingaudio/05_titopo3.wav,1,trainingaudio/05_titopo1.wav,,,,,,,,,,,,,,,,,,,,,,,,,,,,,,,,,,,
,,,,,,,pngimages/26_pineapple.png,Tara McClenaghan,2023,2021-03-05_15h33.38.156,experiment,2020.1.3,Win32,60,,,,,,,,,,,,,,,,test1,,,,,,,,,,,,,,,,,,,,,,,,f,1.076235,0,52,52,52,1,trainingaudio/26_kapako3.wav,trainingaudio/26_kapako1.wav,1,trainingaudio/26_kapako3.wav,,,,,,,,,,,,,,,,,,,,,,,,,,,,,,,,,,,
,,,,,,,pngimages/23_lemon.png,Tara McClenaghan,2023,2021-03-05_15h33.38.156,experiment,2020.1.3,Win32,60,,,,,,,,,,,,,,,,test1,,,,,,,,,,,,,,,,,,,,,,,,f,0.30934,0,53,53,53,1,trainingaudio/23_patoko2.wav,trainingaudio/23_patoko3.wav,1,trainingaudio/23_patoko2.wav,,,,,,,,,,,,,,,,,,,,,,,,,,,,,,,,,,,
,,,,,,,pngimages/14_coffee.png,Tara McClenaghan,2023,2021-03-05_15h33.38.156,experiment,2020.1.3,Win32,60,,,,,,,,,,,,,,,,test1,,,,,,,,,,,,,,,,,,,,,,,,j,0.46618,0,54,54,54,1,trainingaudio/14_pokoto2.wav,trainingaudio/14_pokoto1.wav,2,trainingaudio/14_pokoto1.wav,,,,,,,,,,,,,,,,,,,,,,,,,,,,,,,,,,,
,,,,,,,pngimages/03_box.png,Tara McClenaghan,2023,2021-03-05_15h33.38.156,experiment,2020.1.3,Win32,60,,,,,,,,,,,,,,,,test1,,,,,,,,,,,,,,,,,,,,,,,,f,1.14309,0,55,55,55,1,trainingaudio/03_kikita1.wav,trainingaudio/03_kikita2.wav,1,trainingaudio/03_kikita1.wav,,,,,,,,,,,,,,,,,,,,,,,,,,,,,,,,,,,
,,,,,,,pngimages/67_laptop.png,Tara McClenaghan,2023,2021-03-05_15h33.38.156,experiment,2020.1.3,Win32,60,,,,,,,,,,,,,,,,test2,,,,,,,,,,,,,,,,,,,,,,,,,,,,,,,novelaudio/67_tokoki3.wav,novelaudio/67_tokoki1.wav,1,,f,1.794815,d,11.437375,j,0.956355,0,0,0,0,1,,,,,,,,,,,,,,,,,,,,,,,,
,,,,,,,pngimages/49_calculator.png,Tara McClenaghan,2023,2021-03-05_15h33.38.156,experiment,2020.1.3,Win32,60,,,,,,,,,,,,,,,,test2,,,,,,,,,,,,,,,,,,,,,,,,,,,,,,,novelaudio/49_tatopi2.wav,novelaudio/49_tatopi3.wav,2,,,,,,f,1.323565,0,1,1,1,1,,,,,,,,,,,,,,,,,,,,,,,,
,,,,,,,pngimages/59_umbrella.png,Tara McClenaghan,2023,2021-03-05_15h33.38.156,experiment,2020.1.3,Win32,60,,,,,,,,,,,,,,,,test2,,,,,,,,,,,,,,,,,,,,,,,,,,,,,,,novelaudio/59_tipoko1.wav,novelaudio/59_tipoko3.wav,1,,,,,,j,0.82176,0,2,2,2,1,,,,,,,,,,,,,,,,,,,,,,,,
,,,,,,,pngimages/45_scissors.png,Tara McClenaghan,2023,2021-03-05_15h33.38.156,experiment,2020.1.3,Win32,60,,,,,,,,,,,,,,,,test2,,,,,,,,,,,,,,,,,,,,,,,,,,,,,,,novelaudio/45_totaka1.wav,novelaudio/45_totaka2.wav,1,,,,,,f,1.307185,0,3,3,3,1,,,,,,,,,,,,,,,,,,,,,,,,
,,,,,,,pngimages/35_skillet.png,Tara McClenaghan,2023,2021-03-05_15h33.38.156,experiment,2020.1.3,Win32,60,,,,,,,,,,,,,,,,test2,,,,,,,,,,,,,,,,,,,,,,,,,,,,,,,novelaudio/35_titato1.wav,novelaudio/35_titato2.wav,1,,,,,,f,0.451225,0,4,4,4,1,,,,,,,,,,,,,,,,,,,,,,,,
,,,,,,,pngimages/39_fork.png,Tara McClenaghan,2023,2021-03-05_15h33.38.156,experiment,2020.1.3,Win32,60,,,,,,,,,,,,,,,,test2,,,,,,,,,,,,,,,,,,,,,,,,,,,,,,,novelaudio/39_kotipa1.wav,novelaudio/39_kotipa2.wav,2,,,,,,f,1.327385,0,5,5,5,1,,,,,,,,,,,,,,,,,,,,,,,,
,,,,,,,pngimages/68_heart.png,Tara McClenaghan,2023,2021-03-05_15h33.38.156,experiment,2020.1.3,Win32,60,,,,,,,,,,,,,,,,test2,,,,,,,,,,,,,,,,,,,,,,,,,,,,,,,novelaudio/68_pokopo2.wav,novelaudio/68_pokopo1.wav,2,,,,,,j,0.523705,0,6,6,6,1,,,,,,,,,,,,,,,,,,,,,,,,
,,,,,,,pngimages/74_boat.png,Tara McClenaghan,2023,2021-03-05_15h33.38.156,experiment,2020.1.3,Win32,60,,,,,,,,,,,,,,,,test2,,,,,,,,,,,,,,,,,,,,,,,,,,,,,,,novelaudio/74_tatiko2.wav,novelaudio/74_tatiko1.wav,1,,,,,,f,0.592015,0,7,7,7,1,,,,,,,,,,,,,,,,,,,,,,,,
,,,,,,,pngimages/75_chicken.png,Tara McClenaghan,2023,2021-03-05_15h33.38.156,experiment,2020.1.3,Win32,60,,,,,,,,,,,,,,,,test2,,,,,,,,,,,,,,,,,,,,,,,,,,,,,,,novelaudio/75_kakita3.wav,novelaudio/75_kakita2.wav,2,,,,,,j,0.426105,0,8,8,8,1,,,,,,,,,,,,,,,,,,,,,,,,
,,,,,,,pngimages/29_cherry.png,Tara McClenaghan,2023,2021-03-05_15h33.38.156,experiment,2020.1.3,Win32,60,,,,,,,,,,,,,,,,test2,,,,,,,,,,,,,,,,,,,,,,,,,,,,,,,novelaudio/29_pipito1.wav,novelaudio/29_pipito3.wav,1,,,,,,f,0.708575,0,9,9,9,1,,,,,,,,,,,,,,,,,,,,,,,,
,,,,,,,pngimages/62_screwdriver.png,Tara McClenaghan,2023,2021-03-05_15h33.38.156,experiment,2020.1.3,Win32,60,,,,,,,,,,,,,,,,test2,,,,,,,,,,,,,,,,,,,,,,,,,,,,,,,novelaudio/62_pitako1.wav,novelaudio/62_pitako2.wav,1,,,,,,f,0.64075,0,10,10,10,1,,,,,,,,,,,,,,,,,,,,,,,,
,,,,,,,pngimages/40_spoon.png,Tara McClenaghan,2023,2021-03-05_15h33.38.156,experiment,2020.1.3,Win32,60,,,,,,,,,,,,,,,,test2,,,,,,,,,,,,,,,,,,,,,,,,,,,,,,,novelaudio/40_kototi1.wav,novelaudio/40_kototi3.wav,2,,,,,,f,0.95681,0,11,11,11,1,,,,,,,,,,,,,,,,,,,,,,,,
,,,,,,,pngimages/52_newspaper.png,Tara McClenaghan,2023,2021-03-05_15h33.38.156,experiment,2020.1.3,Win32,60,,,,,,,,,,,,,,,,test2,,,,,,,,,,,,,,,,,,,,,,,,,,,,,,,novelaudio/52_pakaki2.wav,novelaudio/52_pakaki3.wav,2,,,,,,j,2.26535,0,12,12,12,1,,,,,,,,,,,,,,,,,,,,,,,,
,,,,,,,pngimages/46_paper.png,Tara McClenaghan,2023,2021-03-05_15h33.38.156,experiment,2020.1.3,Win32,60,,,,,,,,,,,,,,,,test2,,,,,,,,,,,,,,,,,,,,,,,,,,,,,,,novelaudio/46_tapiti2.wav,novelaudio/46_tapiti1.wav,1,,,,,,j,1.32929,0,13,13,13,1,,,,,,,,,,,,,,,,,,,,,,,,
,,,,,,,pngimages/78_cow.png,Tara McClenaghan,2023,2021-03-05_15h33.38.156,experiment,2020.1.3,Win32,60,,,,,,,,,,,,,,,,test2,,,,,,,,,,,,,,,,,,,,,,,,,,,,,,,novelaudio/78_kakoka2.wav,novelaudio/78_kakoka1.wav,1,,,,,,j,1.42411,0,14,14,14,1,,,,,,,,,,,,,,,,,,,,,,,,
,,,,,,,pngimages/37_mug.png,Tara McClenaghan,2023,2021-03-05_15h33.38.156,experiment,2020.1.3,Win32,60,,,,,,,,,,,,,,,,test2,,,,,,,,,,,,,,,,,,,,,,,,,,,,,,,novelaudio/37_kokiti2.wav,novelaudio/37_kokiti3.wav,1,,,,,,f,1.22619,0,15,15,15,1,,,,,,,,,,,,,,,,,,,,,,,,
,,,,,,,pngimages/41_piano.png,Tara McClenaghan,2023,2021-03-05_15h33.38.156,experiment,2020.1.3,Win32,60,,,,,,,,,,,,,,,,test2,,,,,,,,,,,,,,,,,,,,,,,,,,,,,,,novelaudio/41_pototo1.wav,novelaudio/41_pototo2.wav,1,,,,,,f,0.54263,0,16,16,16,1,,,,,,,,,,,,,,,,,,,,,,,,
,,,,,,,pngimages/50_ruler.png,Tara McClenaghan,2023,2021-03-05_15h33.38.156,experiment,2020.1.3,Win32,60,,,,,,,,,,,,,,,,test2,,,,,,,,,,,,,,,,,,,,,,,,,,,,,,,novelaudio/50_katoko1.wav,novelaudio/50_katoko2.wav,2,,,,,,j,0.794195,0,17,17,17,1,,,,,,,,,,,,,,,,,,,,,,,,
,,,,,,,pngimages/72_nose.png,Tara McClenaghan,2023,2021-03-05_15h33.38.156,experiment,2020.1.3,Win32,60,,,,,,,,,,,,,,,,test2,,,,,,,,,,,,,,,,,,,,,,,,,,,,,,,novelaudio/72_topata1.wav,novelaudio/72_topata3.wav,1,,,,,,f,0.41414,0,18,18,18,1,,,,,,,,,,,,,,,,,,,,,,,,
,,,,,,,pngimages/64_shovel.png,Tara McClenaghan,2023,2021-03-05_15h33.38.156,experiment,2020.1.3,Win32,60,,,,,,,,,,,,,,,,test2,,,,,,,,,,,,,,,,,,,,,,,,,,,,,,,novelaudio/64_popiti3.wav,novelaudio/64_popiti2.wav,2,,,,,,j,0.408355,0,19,19,19,1,,,,,,,,,,,,,,,,,,,,,,,,
,,,,,,,pngimages/61_key.png,Tara McClenaghan,2023,2021-03-05_15h33.38.156,experiment,2020.1.3,Win32,60,,,,,,,,,,,,,,,,test2,,,,,,,,,,,,,,,,,,,,,,,,,,,,,,,novelaudio/61_pikati1.wav,novelaudio/61_pikati2.wav,1,,,,,,f,0.35744,0,20,20,20,1,,,,,,,,,,,,,,,,,,,,,,,,
,,,,,,,pngimages/48_brush.png,Tara McClenaghan,2023,2021-03-05_15h33.38.156,experiment,2020.1.3,Win32,60,,,,,,,,,,,,,,,,test2,,,,,,,,,,,,,,,,,,,,,,,,,,,,,,,novelaudio/48_pakipa2.wav,novelaudio/48_pakipa3.wav,1,,,,,,f,2.47899,0,21,21,21,1,,,,,,,,,,,,,,,,,,,,,,,,
,,,,,,,pngimages/57_flashlight.png,Tara McClenaghan,2023,2021-03-05_15h33.38.156,experiment,2020.1.3,Win32,60,,,,,,,,,,,,,,,,test2,,,,,,,,,,,,,,,,,,,,,,,,,,,,,,,novelaudio/57_tipipa1.wav,novelaudio/57_tipipa2.wav,1,,,,,,j,1.943,0,22,22,22,1,,,,,,,,,,,,,,,,,,,,,,,,
,,,,,,,pngimages/32_greenpepper.png,Tara McClenaghan,2023,2021-03-05_15h33.38.156,experiment,2020.1.3,Win32,60,,,,,,,,,,,,,,,,test2,,,,,,,,,,,,,,,,,,,,,,,,,,,,,,,novelaudio/32_kipoto2.wav,novelaudio/32_kipoto1.wav,2,,,,,,j,0.35792,0,23,23,23,1,,,,,,,,,,,,,,,,,,,,,,,,
,,,,,,,pngimages/54_toiletpaper.png,Tara McClenaghan,2023,2021-03-05_15h33.38.156,experiment,2020.1.3,Win32,60,,,,,,,,,,,,,,,,test2,,,,,,,,,,,,,,,,,,,,,,,,,,,,,,,novelaudio/54_kapapa1.wav,novelaudio/54_kapapa2.wav,1,,,,,,f,0.45755,0,24,24,24,1,,,,,,,,,,,,,,,,,,,,,,,,
,,,,,,,pngimages/79_pig.png,Tara McClenaghan,2023,2021-03-05_15h33.38.156,experiment,2020.1.3,Win32,60,,,,,,,,,,,,,,,,test2,,,,,,,,,,,,,,,,,,,,,,,,,,,,,,,novelaudio/79_katapi3.wav,novelaudio/79_katapi1.wav,1,,,,,,f,0.39504,0,25,25,25,1,,,,,,,,,,,,,,,,,,,,,,,,
,,,,,,,pngimages/55_toilet.png,Tara McClenaghan,2023,2021-03-05_15h33.38.156,experiment,2020.1.3,Win32,60,,,,,,,,,,,,,,,,test2,,,,,,,,,,,,,,,,,,,,,,,,,,,,,,,novelaudio/55_pikiki3.wav,novelaudio/55_pikiki1.wav,2,,,,,,j,0.56164,0,26,26,26,1,,,,,,,,,,,,,,,,,,,,,,,,
,,,,,,,pngimages/43_guitar.png,Tara McClenaghan,2023,2021-03-05_15h33.38.156,experiment,2020.1.3,Win32,60,,,,,,,,,,,,,,,,test2,,,,,,,,,,,,,,,,,,,,,,,,,,,,,,,novelaudio/43_potaki2.wav,novelaudio/43_potaki3.wav,2,,,,,,f,0.860045,0,27,27,27,1,,,,,,,,,,,,,,,,,,,,,,,,
,,,,,,,pngimages/53_hammer.png,Tara McClenaghan,2023,2021-03-05_15h33.38.156,experiment,2020.1.3,Win32,60,,,,,,,,,,,,,,,,test2,,,,,,,,,,,,,,,,,,,,,,,,,,,,,,,novelaudio/53_patapo3.wav,novelaudio/53_patapo1.wav,1,,,,,,j,0.229735,0,28,28,28,1,,,,,,,,,,,,,,,,,,,,,,,,
,,,,,,,pngimages/66_safe.png,Tara McClenaghan,2023,2021-03-05_15h33.38.156,experiment,2020.1.3,Win32,60,,,,,,,,,,,,,,,,test2,,,,,,,,,,,,,,,,,,,,,,,,,,,,,,,novelaudio/66_kopipa3.wav,novelaudio/66_kopipa2.wav,2,,,,,,f,0.66281,0,29,29,29,1,,,,,,,,,,,,,,,,,,,,,,,,
,,,,,,,pngimages/36_microwave.png,Tara McClenaghan,2023,2021-03-05_15h33.38.156,experiment,2020.1.3,Win32,60,,,,,,,,,,,,,,,,test2,,,,,,,,,,,,,,,,,,,,,,,,,,,,,,,novelaudio/36_pipapa1.wav,novelaudio/36_pipapa2.wav,1,,,,,,f,1.37589,0,30,30,30,1,,,,,,,,,,,,,,,,,,,,,,,,
,,,,,,,pngimages/81_cat.png,Tara McClenaghan,2023,2021-03-05_15h33.38.156,experiment,2020.1.3,Win32,60,,,,,,,,,,,,,,,,test2,,,,,,,,,,,,,,,,,,,,,,,,,,,,,,,novelaudio/81_kakapa3.wav,novelaudio/81_kakapa1.wav,2,,,,,,j,0.27002,0,31,31,31,1,,,,,,,,,,,,,,,,,,,,,,,,
,,,,,,,pngimages/28_grape.png,Tara McClenaghan,2023,2021-03-05_15h33.38.156,experiment,2020.1.3,Win32,60,,,,,,,,,,,,,,,,test2,,,,,,,,,,,,,,,,,,,,,,,,,,,,,,,novelaudio/28_pipiki2.wav,novelaudio/28_pipiki1.wav,2,,,,,,j,0.63071,0,32,32,32,1,,,,,,,,,,,,,,,,,,,,,,,,
,,,,,,,pngimages/65_wrench.png,Tara McClenaghan,2023,2021-03-05_15h33.38.156,experiment,2020.1.3,Win32,60,,,,,,,,,,,,,,,,test2,,,,,,,,,,,,,,,,,,,,,,,,,,,,,,,novelaudio/65_totipo3.wav,novelaudio/65_totipo2.wav,2,,,,,,f,0.5422,0,33,33,33,1,,,,,,,,,,,,,,,,,,,,,,,,
,,,,,,,pngimages/51_pencil.png,Tara McClenaghan,2023,2021-03-05_15h33.38.156,experiment,2020.1.3,Win32,60,,,,,,,,,,,,,,,,test2,,,,,,,,,,,,,,,,,,,,,,,,,,,,,,,novelaudio/51_tapopa2.wav,novelaudio/51_tapopa3.wav,1,,,,,,f,0.49718,0,34,34,34,1,,,,,,,,,,,,,,,,,,,,,,,,
,,,,,,,pngimages/44_envelope.png,Tara McClenaghan,2023,2021-03-05_15h33.38.156,experiment,2020.1.3,Win32,60,,,,,,,,,,,,,,,,test2,,,,,,,,,,,,,,,,,,,,,,,,,,,,,,,novelaudio/44_pokato3.wav,novelaudio/44_pokato1.wav,2,,,,,,j,0.30873,0,35,35,35,1,,,,,,,,,,,,,,,,,,,,,,,,
,,,,,,,pngimages/70_hand.png,Tara McClenaghan,2023,2021-03-05_15h33.38.156,experiment,2020.1.3,Win32,60,,,,,,,,,,,,,,,,test2,,,,,,,,,,,,,,,,,,,,,,,,,,,,,,,novelaudio/70_kopati1.wav,novelaudio/70_kopati3.wav,2,,,,,,j,0.326515,0,36,36,36,1,,,,,,,,,,,,,,,,,,,,,,,,
,,,,,,,pngimages/31_tomato.png,Tara McClenaghan,2023,2021-03-05_15h33.38.156,experiment,2020.1.3,Win32,60,,,,,,,,,,,,,,,,test2,,,,,,,,,,,,,,,,,,,,,,,,,,,,,,,novelaudio/31_kikopi2.wav,novelaudio/31_kikopi1.wav,2,,,,,,j,0.404715,0,37,37,37,1,,,,,,,,,,,,,,,,,,,,,,,,
,,,,,,,pngimages/69_tooth.png,Tara McClenaghan,2023,2021-03-05_15h33.38.156,experiment,2020.1.3,Win32,60,,,,,,,,,,,,,,,,test2,,,,,,,,,,,,,,,,,,,,,,,,,,,,,,,novelaudio/69_kotota3.wav,novelaudio/69_kotota1.wav,2,,,,,,j,0.54521,0,38,38,38,1,,,,,,,,,,,,,,,,,,,,,,,,
,,,,,,,pngimages/63_chair.png,Tara McClenaghan,2023,2021-03-05_15h33.38.156,experiment,2020.1.3,Win32,60,,,,,,,,,,,,,,,,test2,,,,,,,,,,,,,,,,,,,,,,,,,,,,,,,novelaudio/63_pitapa1.wav,novelaudio/63_pitapa3.wav,1,,,,,,f,0.22901,0,39,39,39,1,,,,,,,,,,,,,,,,,,,,,,,,
,,,,,,,pngimages/42_harp.png,Tara McClenaghan,2023,2021-03-05_15h33.38.156,experiment,2020.1.3,Win32,60,,,,,,,,,,,,,,,,test2,,,,,,,,,,,,,,,,,,,,,,,,,,,,,,,novelaudio/42_tokota3.wav,novelaudio/42_tokota1.wav,2,,,,,,j,0.21064,0,40,40,40,1,,,,,,,,,,,,,,,,,,,,,,,,
,,,,,,,pngimages/56_towel.png,Tara McClenaghan,2023,2021-03-05_15h33.38.156,experiment,2020.1.3,Win32,60,,,,,,,,,,,,,,,,test2,,,,,,,,,,,,,,,,,,,,,,,,,,,,,,,novelaudio/56_pipiko1.wav,novelaudio/56_pipiko2.wav,1,,,,,,f,1.190615,0,41,41,41,1,,,,,,,,,,,,,,,,,,,,,,,,
,,,,,,,pngimages/77_bear.png,Tara McClenaghan,2023,2021-03-05_15h33.38.156,experiment,2020.1.3,Win32,60,,,,,,,,,,,,,,,,test2,,,,,,,,,,,,,,,,,,,,,,,,,,,,,,,novelaudio/77_takopo2.wav,novelaudio/77_takopo3.wav,1,,,,,,f,0.448955,0,42,42,42,1,,,,,,,,,,,,,,,,,,,,,,,,
,,,,,,,pngimages/60_firewood.png,Tara McClenaghan,2023,2021-03-05_15h33.38.156,experiment,2020.1.3,Win32,60,,,,,,,,,,,,,,,,test2,,,,,,,,,,,,,,,,,,,,,,,,,,,,,,,novelaudio/60_pipopa1.wav,novelaudio/60_pipopa2.wav,1,,,,,,f,0.7991,0,43,43,43,1,,,,,,,,,,,,,,,,,,,,,,,,
,,,,,,,pngimages/76_rabbit.png,Tara McClenaghan,2023,2021-03-05_15h33.38.156,experiment,2020.1.3,Win32,60,,,,,,,,,,,,,,,,test2,,,,,,,,,,,,,,,,,,,,,,,,,,,,,,,novelaudio/76_patoti3.wav,novelaudio/76_patoti1.wav,1,,,,,,j,0.314705,0,44,44,44,1,,,,,,,,,,,,,,,,,,,,,,,,
,,,,,,,pngimages/80_dog.png,Tara McClenaghan,2023,2021-03-05_15h33.38.156,experiment,2020.1.3,Win32,60,,,,,,,,,,,,,,,,test2,,,,,,,,,,,,,,,,,,,,,,,,,,,,,,,novelaudio/80_tatato1.wav,novelaudio/80_tatato3.wav,2,,,,,,f,0.43218,0,45,45,45,1,,,,,,,,,,,,,,,,,,,,,,,,
,,,,,,,pngimages/47_notebook.png,Tara McClenaghan,2023,2021-03-05_15h33.38.156,experiment,2020.1.3,Win32,60,,,,,,,,,,,,,,,,test2,,,,,,,,,,,,,,,,,,,,,,,,,,,,,,,novelaudio/47_takiko2.wav,novelaudio/47_takiko1.wav,1,,,,,,j,0.31873,0,46,46,46,1,,,,,,,,,,,,,,,,,,,,,,,,
,,,,,,,pngimages/73_car.png,Tara McClenaghan,2023,2021-03-05_15h33.38.156,experiment,2020.1.3,Win32,60,,,,,,,,,,,,,,,,test2,,,,,,,,,,,,,,,,,,,,,,,,,,,,,,,novelaudio/73_takiti1.wav,novelaudio/73_takiti2.wav,2,,,,,,f,0.336895,0,47,47,47,1,,,,,,,,,,,,,,,,,,,,,,,,
,,,,,,,pngimages/58_nail.png,Tara McClenaghan,2023,2021-03-05_15h33.38.156,experiment,2020.1.3,Win32,60,,,,,,,,,,,,,,,,test2,,,,,,,,,,,,,,,,,,,,,,,,,,,,,,,novelaudio/58_kipoki3.wav,novelaudio/58_kipoki1.wav,2,,,,,,j,0.277025,0,48,48,48,1,,,,,,,,,,,,,,,,,,,,,,,,
,,,,,,,pngimages/71_eye.png,Tara McClenaghan,2023,2021-03-05_15h33.38.156,experiment,2020.1.3,Win32,60,,,,,,,,,,,,,,,,test2,,,,,,,,,,,,,,,,,,,,,,,,,,,,,,,novelaudio/71_kotato2.wav,novelaudio/71_kotato1.wav,2,,,,,,j,0.09613,0,49,49,49,1,,,,,,,,,,,,,,,,,,,,,,,,
,,,,,,,pngimages/34_knife.png,Tara McClenaghan,2023,2021-03-05_15h33.38.156,experiment,2020.1.3,Win32,60,,,,,,,,,,,,,,,,test2,,,,,,,,,,,,,,,,,,,,,,,,,,,,,,,novelaudio/34_kipaki1.wav,novelaudio/34_kipaki2.wav,1,,,,,,f,0.83314,0,50,50,50,1,,,,,,,,,,,,,,,,,,,,,,,,
,,,,,,,pngimages/33_watermelon.png,Tara McClenaghan,2023,2021-03-05_15h33.38.156,experiment,2020.1.3,Win32,60,,,,,,,,,,,,,,,,test2,,,,,,,,,,,,,,,,,,,,,,,,,,,,,,,novelaudio/33_tipoka2.wav,novelaudio/33_tipoka1.wav,2,,,,,,j,0.188715,0,51,51,51,1,,,,,,,,,,,,,,,,,,,,,,,,
,,,,,,,pngimages/30_mushroom.png,Tara McClenaghan,2023,2021-03-05_15h33.38.156,experiment,2020.1.3,Win32,60,,,,,,,,,,,,,,,,test2,,,,,,,,,,,,,,,,,,,,,,,,,,,,,,,novelaudio/30_tikipa1.wav,novelaudio/30_tikipa3.wav,1,,,,,,f,0.021785,0,52,52,52,1,,,,,,,,,,,,,,,,,,,,,,,,
,,,,,,,pngimages/38_plate.png,Tara McClenaghan,2023,2021-03-05_15h33.38.156,experiment,2020.1.3,Win32,60,,,,,,,,,,,,,,,,test2,,,,,,,,,,,,,,,,,,,,,,,,,,,,,,,novelaudio/38_kokiko1.wav,novelaudio/38_kokiko2.wav,2,,,,,,j,0.288075,0,53,53,53,1,,,,,,,,,,,,,,,,,,,,,,,,
,,,,,,,pngimages/65_wrench.png,Tara McClenaghan,2023,2021-03-05_15h33.38.156,experiment,2020.1.3,Win32,60,,,,,,,,,,,,,,,,test3,,,,,,,,,,,,,,,,,,,,,,,,,,,,,,,novelaudio/65_totipo2.wav,novelaudio/65_totipo3.wav,1,,,,,,,,,,,,,d,10.29729,f,1.327975,0,0,0,0,1,,,,,,,,,,,,,,,
,,,,,,,pngimages/68_heart.png,Tara McClenaghan,2023,2021-03-05_15h33.38.156,experiment,2020.1.3,Win32,60,,,,,,,,,,,,,,,,test3,,,,,,,,,,,,,,,,,,,,,,,,,,,,,,,novelaudio/68_pokopo2.wav,novelaudio/68_pokopo1.wav,2,,,,,,,,,,,,,,,j,0.389725,0,1,1,1,1,,,,,,,,,,,,,,,
,,,,,,,pngimages/49_calculator.png,Tara McClenaghan,2023,2021-03-05_15h33.38.156,experiment,2020.1.3,Win32,60,,,,,,,,,,,,,,,,test3,,,,,,,,,,,,,,,,,,,,,,,,,,,,,,,novelaudio/49_tatopi3.wav,novelaudio/49_tatopi2.wav,1,,,,,,,,,,,,,,,j,0.480105,0,2,2,2,1,,,,,,,,,,,,,,,
,,,,,,,pngimages/45_scissors.png,Tara McClenaghan,2023,2021-03-05_15h33.38.156,experiment,2020.1.3,Win32,60,,,,,,,,,,,,,,,,test3,,,,,,,,,,,,,,,,,,,,,,,,,,,,,,,novelaudio/45_totaka1.wav,novelaudio/45_totaka3.wav,1,,,,,,,,,,,,,,,f,0.34016,0,3,3,3,1,,,,,,,,,,,,,,,
,,,,,,,pngimages/58_nail.png,Tara McClenaghan,2023,2021-03-05_15h33.38.156,experiment,2020.1.3,Win32,60,,,,,,,,,,,,,,,,test3,,,,,,,,,,,,,,,,,,,,,,,,,,,,,,,novelaudio/58_kipoki1.wav,novelaudio/58_kipoki3.wav,1,,,,,,,,,,,,,,,f,0.375705,0,4,4,4,1,,,,,,,,,,,,,,,
,,,,,,,pngimages/31_tomato.png,Tara McClenaghan,2023,2021-03-05_15h33.38.156,experiment,2020.1.3,Win32,60,,,,,,,,,,,,,,,,test3,,,,,,,,,,,,,,,,,,,,,,,,,,,,,,,novelaudio/31_kikopi1.wav,novelaudio/31_kikopi3.wav,1,,,,,,,,,,,,,,,f,0.52599,0,5,5,5,1,,,,,,,,,,,,,,,
,,,,,,,pngimages/46_paper.png,Tara McClenaghan,2023,2021-03-05_15h33.38.156,experiment,2020.1.3,Win32,60,,,,,,,,,,,,,,,,test3,,,,,,,,,,,,,,,,,,,,,,,,,,,,,,,novelaudio/46_tapiti1.wav,novelaudio/46_tapiti2.wav,2,,,,,,,,,,,,,,,j,1.825875,0,6,6,6,1,,,,,,,,,,,,,,,
,,,,,,,pngimages/33_watermelon.png,Tara McClenaghan,2023,2021-03-05_15h33.38.156,experiment,2020.1.3,Win32,60,,,,,,,,,,,,,,,,test3,,,,,,,,,,,,,,,,,,,,,,,,,,,,,,,novelaudio/33_tipoka1.wav,novelaudio/33_tipoka3.wav,1,,,,,,,,,,,,,,,f,0.7978,0,7,7,7,1,,,,,,,,,,,,,,,
,,,,,,,pngimages/29_cherry.png,Tara McClenaghan,2023,2021-03-05_15h33.38.156,experiment,2020.1.3,Win32,60,,,,,,,,,,,,,,,,test3,,,,,,,,,,,,,,,,,,,,,,,,,,,,,,,novelaudio/29_pipito1.wav,novelaudio/29_pipito2.wav,1,,,,,,,,,,,,,,,j,1.0126,0,8,8,8,1,,,,,,,,,,,,,,,
,,,,,,,pngimages/41_piano.png,Tara McClenaghan,2023,2021-03-05_15h33.38.156,experiment,2020.1.3,Win32,60,,,,,,,,,,,,,,,,test3,,,,,,,,,,,,,,,,,,,,,,,,,,,,,,,novelaudio/41_pototo1.wav,novelaudio/41_pototo2.wav,1,,,,,,,,,,,,,,,f,1.984815,0,9,9,9,1,,,,,,,,,,,,,,,
,,,,,,,pngimages/67_laptop.png,Tara McClenaghan,2023,2021-03-05_15h33.38.156,experiment,2020.1.3,Win32,60,,,,,,,,,,,,,,,,test3,,,,,,,,,,,,,,,,,,,,,,,,,,,,,,,novelaudio/67_tokoki1.wav,novelaudio/67_tokoki3.wav,2,,,,,,,,,,,,,,,f,0.325105,0,10,10,10,1,,,,,,,,,,,,,,,
,,,,,,,pngimages/43_guitar.png,Tara McClenaghan,2023,2021-03-05_15h33.38.156,experiment,2020.1.3,Win32,60,,,,,,,,,,,,,,,,test3,,,,,,,,,,,,,,,,,,,,,,,,,,,,,,,novelaudio/43_potaki3.wav,novelaudio/43_potaki2.wav,1,,,,,,,,,,,,,,,j,0.586105,0,11,11,11,1,,,,,,,,,,,,,,,
,,,,,,,pngimages/69_tooth.png,Tara McClenaghan,2023,2021-03-05_15h33.38.156,experiment,2020.1.3,Win32,60,,,,,,,,,,,,,,,,test3,,,,,,,,,,,,,,,,,,,,,,,,,,,,,,,novelaudio/69_kotota2.wav,novelaudio/69_kotota1.wav,2,,,,,,,,,,,,,,,j,0.309645,0,12,12,12,1,,,,,,,,,,,,,,,
,,,,,,,pngimages/79_pig.png,Tara McClenaghan,2023,2021-03-05_15h33.38.156,experiment,2020.1.3,Win32,60,,,,,,,,,,,,,,,,test3,,,,,,,,,,,,,,,,,,,,,,,,,,,,,,,novelaudio/79_katapi3.wav,novelaudio/79_katapi1.wav,1,,,,,,,,,,,,,,,j,0.341205,0,13,13,13,1,,,,,,,,,,,,,,,
,,,,,,,pngimages/44_envelope.png,Tara McClenaghan,2023,2021-03-05_15h33.38.156,experiment,2020.1.3,Win32,60,,,,,,,,,,,,,,,,test3,,,,,,,,,,,,,,,,,,,,,,,,,,,,,,,novelaudio/44_pokato2.wav,novelaudio/44_pokato1.wav,2,,,,,,,,,,,,,,,j,0.44434,0,14,14,14,1,,,,,,,,,,,,,,,
,,,,,,,pngimages/80_dog.png,Tara McClenaghan,2023,2021-03-05_15h33.38.156,experiment,2020.1.3,Win32,60,,,,,,,,,,,,,,,,test3,,,,,,,,,,,,,,,,,,,,,,,,,,,,,,,novelaudio/80_tatato3.wav,novelaudio/80_tatato1.wav,1,,,,,,,,,,,,,,,j,1.92839,0,15,15,15,1,,,,,,,,,,,,,,,
,,,,,,,pngimages/55_toilet.png,Tara McClenaghan,2023,2021-03-05_15h33.38.156,experiment,2020.1.3,Win32,60,,,,,,,,,,,,,,,,test3,,,,,,,,,,,,,,,,,,,,,,,,,,,,,,,novelaudio/55_pikiki1.wav,novelaudio/55_pikiki3.wav,1,,,,,,,,,,,,,,,f,0.42637,0,16,16,16,1,,,,,,,,,,,,,,,
,,,,,,,pngimages/72_nose.png,Tara McClenaghan,2023,2021-03-05_15h33.38.156,experiment,2020.1.3,Win32,60,,,,,,,,,,,,,,,,test3,,,,,,,,,,,,,,,,,,,,,,,,,,,,,,,novelaudio/72_topata3.wav,novelaudio/72_topata1.wav,2,,,,,,,,,,,,,,,j,0.25571,0,17,17,17,1,,,,,,,,,,,,,,,
,,,,,,,pngimages/62_screwdriver.png,Tara McClenaghan,2023,2021-03-05_15h33.38.156,experiment,2020.1.3,Win32,60,,,,,,,,,,,,,,,,test3,,,,,,,,,,,,,,,,,,,,,,,,,,,,,,,novelaudio/62_pitako3.wav,novelaudio/62_pitako1.wav,2,,,,,,,,,,,,,,,j,0.25942,0,18,18,18,1,,,,,,,,,,,,,,,
,,,,,,,pngimages/35_skillet.png,Tara McClenaghan,2023,2021-03-05_15h33.38.156,experiment,2020.1.3,Win32,60,,,,,,,,,,,,,,,,test3,,,,,,,,,,,,,,,,,,,,,,,,,,,,,,,novelaudio/35_titato1.wav,novelaudio/35_titato3.wav,1,,,,,,,,,,,,,,,f,0.41232,0,19,19,19,1,,,,,,,,,,,,,,,
,,,,,,,pngimages/50_ruler.png,Tara McClenaghan,2023,2021-03-05_15h33.38.156,experiment,2020.1.3,Win32,60,,,,,,,,,,,,,,,,test3,,,,,,,,,,,,,,,,,,,,,,,,,,,,,,,novelaudio/50_katoko3.wav,novelaudio/50_katoko2.wav,2,,,,,,,,,,,,,,,j,0.36179,0,20,20,20,1,,,,,,,,,,,,,,,
,,,,,,,pngimages/59_umbrella.png,Tara McClenaghan,2023,2021-03-05_15h33.38.156,experiment,2020.1.3,Win32,60,,,,,,,,,,,,,,,,test3,,,,,,,,,,,,,,,,,,,,,,,,,,,,,,,novelaudio/59_tipoko1.wav,novelaudio/59_tipoko3.wav,1,,,,,,,,,,,,,,,f,0.694255,0,21,21,21,1,,,,,,,,,,,,,,,
,,,,,,,pngimages/47_notebook.png,Tara McClenaghan,2023,2021-03-05_15h33.38.156,experiment,2020.1.3,Win32,60,,,,,,,,,,,,,,,,test3,,,,,,,,,,,,,,,,,,,,,,,,,,,,,,,novelaudio/47_takiko3.wav,novelaudio/47_takiko2.wav,2,,,,,,,,,,,,,,,f,0.562675,0,22,22,22,1,,,,,,,,,,,,,,,
,,,,,,,pngimages/28_grape.png,Tara McClenaghan,2023,2021-03-05_15h33.38.156,experiment,2020.1.3,Win32,60,,,,,,,,,,,,,,,,test3,,,,,,,,,,,,,,,,,,,,,,,,,,,,,,,novelaudio/28_pipiki3.wav,novelaudio/28_pipiki1.wav,2,,,,,,,,,,,,,,,j,0.137465,0,23,23,23,1,,,,,,,,,,,,,,,
,,,,,,,pngimages/64_shovel.png,Tara McClenaghan,2023,2021-03-05_15h33.38.156,experiment,2020.1.3,Win32,60,,,,,,,,,,,,,,,,test3,,,,,,,,,,,,,,,,,,,,,,,,,,,,,,,novelaudio/64_popiti2.wav,novelaudio/64_popiti1.wav,1,,,,,,,,,,,,,,,j,1.66903,0,24,24,24,1,,,,,,,,,,,,,,,
,,,,,,,pngimages/34_knife.png,Tara McClenaghan,2023,2021-03-05_15h33.38.156,experiment,2020.1.3,Win32,60,,,,,,,,,,,,,,,,test3,,,,,,,,,,,,,,,,,,,,,,,,,,,,,,,novelaudio/34_kipaki1.wav,novelaudio/34_kipaki3.wav,1,,,,,,,,,,,,,,,j,0.55875,0,25,25,25,1,,,,,,,,,,,,,,,
,,,,,,,pngimages/48_brush.png,Tara McClenaghan,2023,2021-03-05_15h33.38.156,experiment,2020.1.3,Win32,60,,,,,,,,,,,,,,,,test3,,,,,,,,,,,,,,,,,,,,,,,,,,,,,,,novelaudio/48_pakipa1.wav,novelaudio/48_pakipa2.wav,2,,,,,,,,,,,,,,,f,0.548095,0,26,26,26,1,,,,,,,,,,,,,,,
,,,,,,,pngimages/56_towel.png,Tara McClenaghan,2023,2021-03-05_15h33.38.156,experiment,2020.1.3,Win32,60,,,,,,,,,,,,,,,,test3,,,,,,,,,,,,,,,,,,,,,,,,,,,,,,,novelaudio/56_pipiko3.wav,novelaudio/56_pipiko1.wav,2,,,,,,,,,,,,,,,j,0.76602,0,27,27,27,1,,,,,,,,,,,,,,,
,,,,,,,pngimages/81_cat.png,Tara McClenaghan,2023,2021-03-05_15h33.38.156,experiment,2020.1.3,Win32,60,,,,,,,,,,,,,,,,test3,,,,,,,,,,,,,,,,,,,,,,,,,,,,,,,novelaudio/81_kakapa1.wav,novelaudio/81_kakapa3.wav,1,,,,,,,,,,,,,,,f,1.45851,0,28,28,28,1,,,,,,,,,,,,,,,
,,,,,,,pngimages/32_greenpepper.png,Tara McClenaghan,2023,2021-03-05_15h33.38.156,experiment,2020.1.3,Win32,60,,,,,,,,,,,,,,,,test3,,,,,,,,,,,,,,,,,,,,,,,,,,,,,,,novelaudio/32_kipoto1.wav,novelaudio/32_kipoto3.wav,1,,,,,,,,,,,,,,,f,0.49221,0,29,29,29,1,,,,,,,,,,,,,,,
,,,,,,,pngimages/57_flashlight.png,Tara McClenaghan,2023,2021-03-05_15h33.38.156,experiment,2020.1.3,Win32,60,,,,,,,,,,,,,,,,test3,,,,,,,,,,,,,,,,,,,,,,,,,,,,,,,novelaudio/57_tipipa1.wav,novelaudio/57_tipipa2.wav,1,,,,,,,,,,,,,,,f,0.392615,0,30,30,30,1,,,,,,,,,,,,,,,
,,,,,,,pngimages/78_cow.png,Tara McClenaghan,2023,2021-03-05_15h33.38.156,experiment,2020.1.3,Win32,60,,,,,,,,,,,,,,,,test3,,,,,,,,,,,,,,,,,,,,,,,,,,,,,,,novelaudio/78_kakoka3.wav,novelaudio/78_kakoka2.wav,2,,,,,,,,,,,,,,,f,0.447505,0,31,31,31,1,,,,,,,,,,,,,,,
,,,,,,,pngimages/61_key.png,Tara McClenaghan,2023,2021-03-05_15h33.38.156,experiment,2020.1.3,Win32,60,,,,,,,,,,,,,,,,test3,,,,,,,,,,,,,,,,,,,,,,,,,,,,,,,novelaudio/61_pikati2.wav,novelaudio/61_pikati1.wav,2,,,,,,,,,,,,,,,j,0.3416,0,32,32,32,1,,,,,,,,,,,,,,,
,,,,,,,pngimages/37_mug.png,Tara McClenaghan,2023,2021-03-05_15h33.38.156,experiment,2020.1.3,Win32,60,,,,,,,,,,,,,,,,test3,,,,,,,,,,,,,,,,,,,,,,,,,,,,,,,novelaudio/37_kokiti3.wav,novelaudio/37_kokiti2.wav,2,,,,,,,,,,,,,,,j,0.64816,0,33,33,33,1,,,,,,,,,,,,,,,
,,,,,,,pngimages/39_fork.png,Tara McClenaghan,2023,2021-03-05_15h33.38.156,experiment,2020.1.3,Win32,60,,,,,,,,,,,,,,,,test3,,,,,,,,,,,,,,,,,,,,,,,,,,,,,,,novelaudio/39_kotipa3.wav,novelaudio/39_kotipa2.wav,2,,,,,,,,,,,,,,,j,0.37564,0,34,34,34,1,,,,,,,,,,,,,,,
,,,,,,,pngimages/51_pencil.png,Tara McClenaghan,2023,2021-03-05_15h33.38.156,experiment,2020.1.3,Win32,60,,,,,,,,,,,,,,,,test3,,,,,,,,,,,,,,,,,,,,,,,,,,,,,,,novelaudio/51_tapopa1.wav,novelaudio/51_tapopa2.wav,2,,,,,,,,,,,,,,,f,0.843705,0,35,35,35,1,,,,,,,,,,,,,,,
,,,,,,,pngimages/36_microwave.png,Tara McClenaghan,2023,2021-03-05_15h33.38.156,experiment,2020.1.3,Win32,60,,,,,,,,,,,,,,,,test3,,,,,,,,,,,,,,,,,,,,,,,,,,,,,,,novelaudio/36_pipapa1.wav,novelaudio/36_pipapa3.wav,1,,,,,,,,,,,,,,,f,0.904615,0,36,36,36,1,,,,,,,,,,,,,,,
,,,,,,,pngimages/53_hammer.png,Tara McClenaghan,2023,2021-03-05_15h33.38.156,experiment,2020.1.3,Win32,60,,,,,,,,,,,,,,,,test3,,,,,,,,,,,,,,,,,,,,,,,,,,,,,,,novelaudio/53_patapo2.wav,novelaudio/53_patapo3.wav,2,,,,,,,,,,,,,,,f,0.73306,0,37,37,37,1,,,,,,,,,,,,,,,
,,,,,,,pngimages/38_plate.png,Tara McClenaghan,2023,2021-03-05_15h33.38.156,experiment,2020.1.3,Win32,60,,,,,,,,,,,,,,,,test3,,,,,,,,,,,,,,,,,,,,,,,,,,,,,,,novelaudio/38_kokiko1.wav,novelaudio/38_kokiko2.wav,2,,,,,,,,,,,,,,,f,0.96335,0,38,38,38,1,,,,,,,,,,,,,,,
,,,,,,,pngimages/74_boat.png,Tara McClenaghan,2023,2021-03-05_15h33.38.156,experiment,2020.1.3,Win32,60,,,,,,,,,,,,,,,,test3,,,,,,,,,,,,,,,,,,,,,,,,,,,,,,,novelaudio/74_tatiko2.wav,novelaudio/74_tatiko1.wav,1,,,,,,,,,,,,,,,f,0.359415,0,39,39,39,1,,,,,,,,,,,,,,,
,,,,,,,pngimages/63_chair.png,Tara McClenaghan,2023,2021-03-05_15h33.38.156,experiment,2020.1.3,Win32,60,,,,,,,,,,,,,,,,test3,,,,,,,,,,,,,,,,,,,,,,,,,,,,,,,novelaudio/63_pitapa2.wav,novelaudio/63_pitapa1.wav,2,,,,,,,,,,,,,,,f,0.46419,0,40,40,40,1,,,,,,,,,,,,,,,
,,,,,,,pngimages/77_bear.png,Tara McClenaghan,2023,2021-03-05_15h33.38.156,experiment,2020.1.3,Win32,60,,,,,,,,,,,,,,,,test3,,,,,,,,,,,,,,,,,,,,,,,,,,,,,,,novelaudio/77_takopo3.wav,novelaudio/77_takopo2.wav,2,,,,,,,,,,,,,,,j,0.3931,0,41,41,41,1,,,,,,,,,,,,,,,
,,,,,,,pngimages/52_newspaper.png,Tara McClenaghan,2023,2021-03-05_15h33.38.156,experiment,2020.1.3,Win32,60,,,,,,,,,,,,,,,,test3,,,,,,,,,,,,,,,,,,,,,,,,,,,,,,,novelaudio/52_pakaki3.wav,novelaudio/52_pakaki2.wav,1,,,,,,,,,,,,,,,f,1.127965,0,42,42,42,1,,,,,,,,,,,,,,,
,,,,,,,pngimages/30_mushroom.png,Tara McClenaghan,2023,2021-03-05_15h33.38.156,experiment,2020.1.3,Win32,60,,,,,,,,,,,,,,,,test3,,,,,,,,,,,,,,,,,,,,,,,,,,,,,,,novelaudio/30_tikipa1.wav,novelaudio/30_tikipa3.wav,1,,,,,,,,,,,,,,,f,2.46705,0,43,43,43,1,,,,,,,,,,,,,,,
,,,,,,,pngimages/70_hand.png,Tara McClenaghan,2023,2021-03-05_15h33.38.156,experiment,2020.1.3,Win32,60,,,,,,,,,,,,,,,,test3,,,,,,,,,,,,,,,,,,,,,,,,,,,,,,,novelaudio/70_kopati2.wav,novelaudio/70_kopati3.wav,2,,,,,,,,,,,,,,,f,0.742735,0,44,44,44,1,,,,,,,,,,,,,,,
,,,,,,,pngimages/60_firewood.png,Tara McClenaghan,2023,2021-03-05_15h33.38.156,experiment,2020.1.3,Win32,60,,,,,,,,,,,,,,,,test3,,,,,,,,,,,,,,,,,,,,,,,,,,,,,,,novelaudio/60_pipopa1.wav,novelaudio/60_pipopa2.wav,1,,,,,,,,,,,,,,,f,0.44204,0,45,45,45,1,,,,,,,,,,,,,,,
,,,,,,,pngimages/75_chicken.png,Tara McClenaghan,2023,2021-03-05_15h33.38.156,experiment,2020.1.3,Win32,60,,,,,,,,,,,,,,,,test3,,,,,,,,,,,,,,,,,,,,,,,,,,,,,,,novelaudio/75_kakita3.wav,novelaudio/75_kakita2.wav,2,,,,,,,,,,,,,,,j,0.433255,0,46,46,46,1,,,,,,,,,,,,,,,
,,,,,,,pngimages/54_toiletpaper.png,Tara McClenaghan,2023,2021-03-05_15h33.38.156,experiment,2020.1.3,Win32,60,,,,,,,,,,,,,,,,test3,,,,,,,,,,,,,,,,,,,,,,,,,,,,,,,novelaudio/54_kapapa3.wav,novelaudio/54_kapapa1.wav,2,,,,,,,,,,,,,,,j,0.42533,0,47,47,47,1,,,,,,,,,,,,,,,
,,,,,,,pngimages/71_eye.png,Tara McClenaghan,2023,2021-03-05_15h33.38.156,experiment,2020.1.3,Win32,60,,,,,,,,,,,,,,,,test3,,,,,,,,,,,,,,,,,,,,,,,,,,,,,,,novelaudio/71_kotato2.wav,novelaudio/71_kotato1.wav,2,,,,,,,,,,,,,,,j,0.300975,0,48,48,48,1,,,,,,,,,,,,,,,
,,,,,,,pngimages/42_harp.png,Tara McClenaghan,2023,2021-03-05_15h33.38.156,experiment,2020.1.3,Win32,60,,,,,,,,,,,,,,,,test3,,,,,,,,,,,,,,,,,,,,,,,,,,,,,,,novelaudio/42_tokota1.wav,novelaudio/42_tokota2.wav,1,,,,,,,,,,,,,,,f,0.2986,0,49,49,49,1,,,,,,,,,,,,,,,
,,,,,,,pngimages/66_safe.png,Tara McClenaghan,2023,2021-03-05_15h33.38.156,experiment,2020.1.3,Win32,60,,,,,,,,,,,,,,,,test3,,,,,,,,,,,,,,,,,,,,,,,,,,,,,,,novelaudio/66_kopipa2.wav,novelaudio/66_kopipa3.wav,1,,,,,,,,,,,,,,,f,0.313975,0,50,50,50,1,,,,,,,,,,,,,,,
,,,,,,,pngimages/73_car.png,Tara McClenaghan,2023,2021-03-05_15h33.38.156,experiment,2020.1.3,Win32,60,,,,,,,,,,,,,,,,test3,,,,,,,,,,,,,,,,,,,,,,,,,,,,,,,novelaudio/73_takiti1.wav,novelaudio/73_takiti2.wav,2,,,,,,,,,,,,,,,j,1.325095,0,51,51,51,1,,,,,,,,,,,,,,,
,,,,,,,pngimages/40_spoon.png,Tara McClenaghan,2023,2021-03-05_15h33.38.156,experiment,2020.1.3,Win32,60,,,,,,,,,,,,,,,,test3,,,,,,,,,,,,,,,,,,,,,,,,,,,,,,,novelaudio/40_kototi1.wav,novelaudio/40_kototi3.wav,2,,,,,,,,,,,,,,,f,0.26287,0,52,52,52,1,,,,,,,,,,,,,,,
,,,,,,,pngimages/76_rabbit.png,Tara McClenaghan,2023,2021-03-05_15h33.38.156,experiment,2020.1.3,Win32,60,,,,,,,,,,,,,,,,test3,,,,,,,,,,,,,,,,,,,,,,,,,,,,,,,novelaudio/76_patoti3.wav,novelaudio/76_patoti1.wav,1,,,,,,,,,,,,,,,j,0.253525,0,53,53,53,1,,,,,,,,,,,,,,,
,,,,,,,,Tara McClenaghan,2023,2021-03-05_15h33.38.156,experiment,2020.1.3,Win32,60,,,,,,,,,,,,,,,,postTest,,,,,,,,,,,,,,,,,,,,,,,,,,,,,,,,,,,,,,,,,,,,,,,,,,,,,,,s,17.26007,f,0.726495,0,0,0,0,1,postTest/82_tipiko1.wav,postTest/82_tipiko1.wav,postTest/82_tipiko3.wav,audioA,,
,,,,,,,,Tara McClenaghan,2023,2021-03-05_15h33.38.156,experiment,2020.1.3,Win32,60,,,,,,,,,,,,,,,,postTest,,,,,,,,,,,,,,,,,,,,,,,,,,,,,,,,,,,,,,,,,,,,,,,,,,,,,,,,,f,0.3635,0,1,1,1,1,postTest/83_pitita3.wav,postTest/83_pitita3.wav,postTest/83_pitita2.wav,audioA,,
,,,,,,,,Tara McClenaghan,2023,2021-03-05_15h33.38.156,experiment,2020.1.3,Win32,60,,,,,,,,,,,,,,,,postTest,,,,,,,,,,,,,,,,,,,,,,,,,,,,,,,,,,,,,,,,,,,,,,,,,,,,,,,,,j,0.34215,0,2,2,2,1,postTest/84_pitoka3.wav,postTest/84_pitoka1.wav,postTest/84_pitoka1.wav,audioB,,
,,,,,,,,Tara McClenaghan,2023,2021-03-05_15h33.38.156,experiment,2020.1.3,Win32,60,,,,,,,,,,,,,,,,postTest,,,,,,,,,,,,,,,,,,,,,,,,,,,,,,,,,,,,,,,,,,,,,,,,,,,,,,,,,f,0.33012,0,3,3,3,1,postTest/85_kipata2.wav,postTest/85_kipata2.wav,postTest/85_kipata3.wav,audioA,,
,,,,,,,,Tara McClenaghan,2023,2021-03-05_15h33.38.156,experiment,2020.1.3,Win32,60,,,,,,,,,,,,,,,,postTest,,,,,,,,,,,,,,,,,,,,,,,,,,,,,,,,,,,,,,,,,,,,,,,,,,,,,,,,,j,0.225175,0,4,4,4,1,postTest/86_totipa2.wav,postTest/86_totipa1.wav,postTest/86_totipa1.wav,audioB,,
,,,,,,,,Tara McClenaghan,2023,2021-03-05_15h33.38.156,experiment,2020.1.3,Win32,60,,,,,,,,,,,,,,,,postTest,,,,,,,,,,,,,,,,,,,,,,,,,,,,,,,,,,,,,,,,,,,,,,,,,,,,,,,,,j,0.1767,0,5,5,5,1,postTest/87_kopoko1.wav,postTest/87_kopoko3.wav,postTest/87_kopoko3.wav,audioB,,
,,,,,,,,Tara McClenaghan,2023,2021-03-05_15h33.38.156,experiment,2020.1.3,Win32,60,,,,,,,,,,,,,,,,postTest,,,,,,,,,,,,,,,,,,,,,,,,,,,,,,,,,,,,,,,,,,,,,,,,,,,,,,,,,f,0.215255,0,6,6,6,1,postTest/88_pokota2.wav,postTest/88_pokota2.wav,postTest/88_pokota1.wav,audioA,,
,,,,,,,,Tara McClenaghan,2023,2021-03-05_15h33.38.156,experiment,2020.1.3,Win32,60,,,,,,,,,,,,,,,,postTest,,,,,,,,,,,,,,,,,,,,,,,,,,,,,,,,,,,,,,,,,,,,,,,,,,,,,,,,,j,0.38349,0,7,7,7,1,postTest/89_totako3.wav,postTest/89_totako2.wav,postTest/89_totako2.wav,audioB,,
,,,,,,,,Tara McClenaghan,2023,2021-03-05_15h33.38.156,experiment,2020.1.3,Win32,60,,,,,,,,,,,,,,,,postTest,,,,,,,,,,,,,,,,,,,,,,,,,,,,,,,,,,,,,,,,,,,,,,,,,,,,,,,,,j,0.374425,0,8,8,8,1,postTest/90_papiki2.wav,postTest/90_papiki3.wav,postTest/90_papiki3.wav,audioB,,
,,,,,,,,Tara McClenaghan,2023,2021-03-05_15h33.38.156,experiment,2020.1.3,Win32,60,,,,,,,,,,,,,,,,postTest,,,,,,,,,,,,,,,,,,,,,,,,,,,,,,,,,,,,,,,,,,,,,,,,,,,,,,,,,f,0.46082,0,9,9,9,1,postTest/91_papipo1.wav,postTest/91_papipo1.wav,postTest/91_papipo2.wav,audioA,,
,,,,,,,,Tara McClenaghan,2023,2021-03-05_15h33.38.156,experiment,2020.1.3,Win32,60,,,,,,,,,,,,,,,,postTest,,,,,,,,,,,,,,,,,,,,,,,,,,,,,,,,,,,,,,,,,,,,,,,,,,,,,,,,,j,0.31221,0,10,10,10,1,postTest/92_katoki1.wav,postTest/92_katoki2.wav,postTest/92_katoki2.wav,audioB,,
,,,,,,,,Tara McClenaghan,2023,2021-03-05_15h33.38.156,experiment,2020.1.3,Win32,60,,,,,,,,,,,,,,,,postTest,,,,,,,,,,,,,,,,,,,,,,,,,,,,,,,,,,,,,,,,,,,,,,,,,,,,,,,,,f,0.45881,0,11,11,11,1,postTest/93_pakopa3.wav,postTest/93_pakopa3.wav,postTest/93_pakopa1.wav,audioA,,
,,,,,,,,Tara McClenaghan,2023,2021-03-05_15h33.38.156,experiment,2020.1.3,Win32,60,,,,,,,,,,,,,,,,,,,,,,,,,,,,,,,,,,,,,,,,,,,,,,,,,,,,,,,,,,,,,,,,,,,,,,,,,,,,,,,,,,,,d,2.042015
