firstAudio,secondAudio,imageLoc,whichAudio,train1blocks.thisRepN,train1blocks.thisTrialN,train1blocks.thisN,train1blocks.thisIndex,train2blocks.thisRepN,train2blocks.thisTrialN,train2blocks.thisN,train2blocks.thisIndex,test1Loop.thisRepN,test1Loop.thisTrialN,test1Loop.thisN,test1Loop.thisIndex,instructions.started,instructions.stopped,train2warning10.started,train2warning10.stopped,train2warning5.started,train2warning5.stopped,train2warning4.started,train2warning4.stopped,train2warning3.started,train2warning3.stopped,train2warning2.started,train2warning2.stopped,train2warning1.started,train2warning1.stopped,skipTrain2Instr.keys,skipTrain2Instr.rt,skipTrain2Instr.started,skipTrain2Instr.stopped,skipTest1Instr.keys,skipTest1Instr.rt,skipTest1Instr.started,skipTest1Instr.stopped,test1warning10.started,test1warning10.stopped,test1warning5.started,test1warning5.stopped,test1warning4.started,test1warning4.stopped,test1warning3.started,test1warning3.stopped,test1warning2.started,test1warning2.stopped,test1warning1.started,test1warning1.stopped,test1Audio1.started,test1Audio1.stopped,test1Audio1Sound.started,test1Audio1Sound.stopped,test1Audio1Mute.started,test1Audio1Mute.stopped,test1Audio2.started,test1Audio2.stopped,test1Audio2Mute1.started,test1Audio2Mute1.stopped,test1Audio2Sound.started,test1Audio2Sound.stopped,test1Audio2Mute2.started,test1Audio2Mute2.stopped,test1Response.keys,test1Response.rt,test1Response.started,test1Response.stopped,test1Image.started,test1Image.stopped,test1F.started,test1F.stopped,test1J.started,test1J.stopped,participant,session,date,expName,psychopyVersion,frameRate,
,,,,,,,,,,,,,,,,18.31765794218518,None,20.95818217517808,None,None,None,None,None,None,None,None,None,None,None,space,21.46309148031287,20.95818217517808,None,,,,,,,,,,,,,,,,,,,,,,,,,,,,,,,,,,,,,,,,,tester,001,2020_Aug_06_2138,sonority,2020.1.3,59.96870737812968,
,,,,,,,,,,,,,,,,,,,,,,,,,,,,,,,,,,h,1.626437072409317,42.449575976934284,None,,,,,,,,,,,,,,,,,,,,,,,,,,,,,,,,,,,,,tester,001,2020_Aug_06_2138,sonority,2020.1.3,59.96870737812968,
trainingaudio/20_tatito3.wav,trainingaudio/20_tatito1.wav,pngimages/20_pizza.png,2,,,,,,,,,0,0,0,0,,,,,,,,,,,,,,,,,,,,,,,42.449575976934284,None,None,None,None,None,None,None,None,None,None,None,44.17277793714311,None,44.21075047948398,45.22517519746907,45.17524089664221,None,45.175438446807675,None,44.21075047948398,45.22517519746907,45.17524089664221,46.176655314164236,46.176655314164236,None,j,3.1361635529901832,46.176655314164236,None,44.21075047948398,None,44.21075047948398,None,44.21075047948398,None,tester,001,2020_Aug_06_2138,sonority,2020.1.3,59.96870737812968,
trainingaudio/14_pokoto1.wav,trainingaudio/14_pokoto2.wav,pngimages/14_coffee.png,1,,,,,,,,,0,1,1,1,,,,,,,,,,,,,,,,,,,,,,,,,,,,,,,,,,,49.37761014024727,None,49.38293788046576,50.39605277078226,50.3796857772395,None,50.37889708660077,None,49.38293788046576,50.39605277078226,50.3796857772395,51.381608796073124,51.381608796073124,None,f,2.975345108890906,51.381608796073124,None,49.38293788046576,None,49.38293788046576,None,49.38293788046576,None,tester,001,2020_Aug_06_2138,sonority,2020.1.3,59.96870737812968,
trainingaudio/24_takopa3.wav,trainingaudio/24_takopa1.wav,pngimages/24_banana.png,2,,,,,,,,,0,2,2,2,,,,,,,,,,,,,,,,,,,,,,,,,,,,,,,,,,,54.484166301670484,None,54.48784416494891,55.50049425335601,55.483633384341374,None,55.48347034479957,None,54.48784416494891,55.50049425335601,55.483633384341374,56.48439874034375,56.48439874034375,None,f,0.3607523674145341,56.48439874034375,None,54.48784416494891,None,54.48784416494891,None,54.48784416494891,None,tester,001,2020_Aug_06_2138,sonority,2020.1.3,59.96870737812968,
trainingaudio/26_kapako1.wav,trainingaudio/26_kapako2.wav,pngimages/26_pineapple.png,1,,,,,,,,,0,3,3,3,,,,,,,,,,,,,,,,,,,,,,,,,,,,,,,,,,,56.93331093026791,None,56.9267802934628,57.935885653598234,57.90197134925984,None,57.9021764510544,None,56.9267802934628,57.935885653598234,57.90197134925984,58.9034771414008,58.9034771414008,None,f,0.08728761062957346,58.9034771414008,None,56.9267802934628,None,56.9267802934628,None,56.9267802934628,None,tester,001,2020_Aug_06_2138,sonority,2020.1.3,59.96870737812968,
trainingaudio/19_papipi2.wav,trainingaudio/19_papipi1.wav,pngimages/19_burger.png,2,,,,,,,,,0,4,4,4,,,,,,,,,,,,,,,,,,,,,,,,,,,,,,,,,,,59.05256135680247,None,59.0543825798668,60.05878252862021,60.03900937922299,None,60.0382599568693,None,59.0543825798668,60.05878252862021,60.03900937922299,61.0380340879783,61.0380340879783,None,j,0.3101720258127898,61.0380340879783,None,59.0543825798668,None,59.0543825798668,None,59.0543825798668,None,tester,001,2020_Aug_06_2138,sonority,2020.1.3,59.96870737812968,
trainingaudio/15_kopota3.wav,trainingaudio/15_kopota1.wav,pngimages/15_barrel.png,1,,,,,,,,,0,5,5,5,,,,,,,,,,,,,,,,,,,,,,,,,,,,,,,,,,,61.45441626012325,None,61.458770068362355,62.47252042707987,62.45581814204343,None,62.4559224297991,None,61.458770068362355,62.47252042707987,62.45581814204343,63.45658500865102,63.45658500865102,None,j,0.5882613915018737,63.45658500865102,None,61.458770068362355,None,61.458770068362355,None,61.458770068362355,None,tester,001,2020_Aug_06_2138,sonority,2020.1.3,59.96870737812968,
trainingaudio/04_kitoti2.wav,trainingaudio/04_kitoti1.wav,pngimages/04_ladder.png,1,,,,,,,,,0,6,6,6,,,,,,,,,,,,,,,,,,,,,,,,,,,,,,,,,,,64.10705796617549,None,64.10722312005237,65.10846347291954,65.09126127092168,None,65.09128588915337,None,64.10722312005237,65.10846347291954,65.09126127092168,66.09220333490521,66.09220333490521,None,j,0.3099794597364962,66.09220333490521,None,64.10722312005237,None,64.10722312005237,None,64.10722312005237,None,tester,001,2020_Aug_06_2138,sonority,2020.1.3,59.96870737812968,
trainingaudio/16_kokapi2.wav,trainingaudio/16_kokapi1.wav,pngimages/16_icecream.png,1,,,,,,,,,0,7,7,7,,,,,,,,,,,,,,,,,,,,,,,,,,,,,,,,,,,66.47556025441736,None,66.47827287018299,67.49358867877163,67.47704044659622,None,67.47647566127125,None,66.47827287018299,67.49358867877163,67.47704044659622,68.4799387564417,68.4799387564417,None,j,0.2373808731790632,68.4799387564417,None,66.47827287018299,None,66.47827287018299,None,66.47827287018299,None,tester,001,2020_Aug_06_2138,sonority,2020.1.3,59.96870737812968,
trainingaudio/25_tapapi1.wav,trainingaudio/25_tapapi2.wav,pngimages/25_apple.png,1,,,,,,,,,0,8,8,8,,,,,,,,,,,,,,,,,,,,,,,,,,,,,,,,,,,68.79906624287833,None,68.79578355560079,69.81185112753883,69.77829552488402,None,69.7782072465634,None,68.79578355560079,69.81185112753883,69.77829552488402,70.78058441961184,70.78058441961184,None,j,0.2613851928617805,70.78058441961184,None,68.79578355560079,None,68.79578355560079,None,68.79578355560079,None,tester,001,2020_Aug_06_2138,sonority,2020.1.3,59.96870737812968,
trainingaudio/06_titoka2.wav,trainingaudio/06_titoka3.wav,pngimages/06_tent.png,2,,,,,,,,,0,9,9,9,,,,,,,,,,,,,,,,,,,,,,,,,,,,,,,,,,,71.1173905392643,None,71.12478477903642,72.13057007151656,72.11383380414918,None,72.11395470553543,None,71.12478477903642,72.13057007151656,72.11383380414918,73.11491179722361,73.11491179722361,None,j,0.12219268688932061,73.11491179722361,None,71.12478477903642,None,71.12478477903642,None,71.12478477903642,None,tester,001,2020_Aug_06_2138,sonority,2020.1.3,59.96870737812968,
trainingaudio/18_popata2.wav,trainingaudio/18_popata1.wav,pngimages/18_donut.png,1,,,,,,,,,0,10,10,10,,,,,,,,,,,,,,,,,,,,,,,,,,,,,,,,,,,73.29776079498697,None,73.29942494444549,74.29928712756373,74.28234696667641,None,74.2823500627419,None,73.29942494444549,74.29928712756373,74.28234696667641,75.2852588694077,75.2852588694077,None,j,0.13487260416150093,75.2852588694077,None,73.29942494444549,None,73.29942494444549,None,73.29942494444549,None,tester,001,2020_Aug_06_2138,sonority,2020.1.3,59.96870737812968,
trainingaudio/12_pokika1.wav,trainingaudio/12_pokika3.wav,pngimages/12_pie.png,2,,,,,,,,,0,11,11,11,,,,,,,,,,,,,,,,,,,,,,,,,,,,,,,,,,,75.51580855145585,None,75.50943914148957,76.51796113932505,76.48432662244886,None,76.4842345683137,None,75.50943914148957,76.51796113932505,76.48432662244886,77.4856560844928,77.4856560844928,None,j,0.3499237287323922,77.4856560844928,None,75.50943914148957,None,75.50943914148957,None,75.50943914148957,None,tester,001,2020_Aug_06_2138,sonority,2020.1.3,59.96870737812968,
trainingaudio/13_kopopi1.wav,trainingaudio/13_kopopi2.wav,pngimages/13_toast.png,1,,,,,,,,,0,12,12,12,,,,,,,,,,,,,,,,,,,,,,,,,,,,,,,,,,,77.8849619399989,None,77.88804503786378,78.90279825101607,78.8863768861629,None,78.88584910368081,None,77.88804503786378,78.90279825101607,78.8863768861629,79.88710033078678,79.88710033078678,None,j,0.03983212751336396,79.88710033078678,None,77.88804503786378,None,77.88804503786378,None,77.88804503786378,None,tester,001,2020_Aug_06_2138,sonority,2020.1.3,59.96870737812968,
trainingaudio/23_patoko2.wav,trainingaudio/23_patoko1.wav,pngimages/23_lemon.png,2,,,,,,,,,0,13,13,13,,,,,,,,,,,,,,,,,,,,,,,,,,,,,,,,,,,79.98661989707034,None,79.98816322069615,80.9878513389267,80.97105428110808,None,80.97120991989505,None,79.98816322069615,80.9878513389267,80.97105428110808,81.97195141296834,81.97195141296834,None,j,0.38265696028247476,81.97195141296834,None,79.98816322069615,None,79.98816322069615,None,79.98816322069615,None,tester,001,2020_Aug_06_2138,sonority,2020.1.3,59.96870737812968,
trainingaudio/08_tipako2.wav,trainingaudio/08_tipako1.wav,pngimages/08_bell.png,1,,,,,,,,,0,14,14,14,,,,,,,,,,,,,,,,,,,,,,,,,,,,,,,,,,,82.40564166067634,None,82.40941195585765,83.42347004287876,83.40665032994002,None,83.40623619954567,None,82.40941195585765,83.42347004287876,83.40665032994002,84.40812213998288,84.40812213998288,None,j,0.06499713053926826,84.40812213998288,None,82.40941195585765,None,82.40941195585765,None,82.40941195585765,None,tester,001,2020_Aug_06_2138,sonority,2020.1.3,59.96870737812968,
trainingaudio/09_tipata2.wav,trainingaudio/09_tipata3.wav,pngimages/09_plane.png,1,,,,,,,,,0,15,15,15,,,,,,,,,,,,,,,,,,,,,,,,,,,,,,,,,,,84.54001253563911,None,84.54025388532318,85.54169624391943,85.52520389365964,None,85.52505482465494,None,84.54025388532318,85.54169624391943,85.52520389365964,86.52596434135921,86.52596434135921,None,j,0.10074534430168569,86.52596434135921,None,84.54025388532318,None,84.54025388532318,None,84.54025388532318,None,tester,001,2020_Aug_06_2138,sonority,2020.1.3,59.96870737812968,
trainingaudio/21_papika1.wav,trainingaudio/21_papika3.wav,pngimages/21_cheese.png,1,,,,,,,,,0,16,16,16,,,,,,,,,,,,,,,,,,,,,,,,,,,,,,,,,,,86.72503519058228,None,86.72166331880726,87.72691735508852,87.70995491696522,None,87.7098303908715,None,86.72166331880726,87.72691735508852,87.70995491696522,88.71084525226615,88.71084525226615,None,j,0.11792111583054066,88.71084525226615,None,86.72166331880726,None,86.72166331880726,None,86.72166331880726,None,tester,001,2020_Aug_06_2138,sonority,2020.1.3,59.96870737812968,
trainingaudio/10_tokiti1.wav,trainingaudio/10_tokiti3.wav,pngimages/10_backpack.png,1,,,,,,,,,0,17,17,17,,,,,,,,,,,,,,,,,,,,,,,,,,,,,,,,,,,88.87720492074732,None,88.87875277525745,89.87839671666734,89.86227288516238,None,89.86176775756758,None,88.87875277525745,89.87839671666734,89.86227288516238,90.8629219464492,90.8629219464492,None,j,0.07080016913823783,90.8629219464492,None,88.87875277525745,None,88.87875277525745,None,88.87875277525745,None,tester,001,2020_Aug_06_2138,sonority,2020.1.3,59.96870737812968,
trainingaudio/05_titopo1.wav,trainingaudio/05_titopo2.wav,pngimages/05_megaphone.png,2,,,,,,,,,0,18,18,18,,,,,,,,,,,,,,,,,,,,,,,,,,,,,,,,,,,91.01265152310953,None,91.00701318518259,92.014103774447,91.99762803758495,None,91.99681480426807,None,91.00701318518259,92.014103774447,91.99762803758495,92.99801656836644,92.99801656836644,None,j,0.13675862015224993,92.99801656836644,None,91.00701318518259,None,91.00701318518259,None,91.00701318518259,None,tester,001,2020_Aug_06_2138,sonority,2020.1.3,59.96870737812968,
trainingaudio/07_pitapi2.wav,trainingaudio/07_pitapi3.wav,pngimages/07_suitcase.png,1,,,,,,,,,0,19,19,19,,,,,,,,,,,,,,,,,,,,,,,,,,,,,,,,,,,93.19762297801208,None,93.20000188797712,94.21576512977481,94.19889821927063,None,94.19849466101732,None,93.20000188797712,94.21576512977481,94.19889821927063,95.19971643690951,95.18340419279411,None,f,0.28212608164176345,95.18340419279411,None,93.20000188797712,None,93.20000188797712,None,93.20000188797712,None,tester,001,2020_Aug_06_2138,sonority,2020.1.3,59.96870737812968,
trainingaudio/17_kotako1.wav,trainingaudio/17_kotako2.wav,pngimages/17_cracker.png,2,,,,,,,,,0,20,20,20,,,,,,,,,,,,,,,,,,,,,,,,,,,,,,,,,,,95.51610329106916,None,95.51621558354236,96.51747330510989,96.5008374741301,None,96.50054077117238,None,95.51621558354236,96.51747330510989,96.5008374741301,97.50161680090241,97.50161680090241,None,f,0.7338633306790143,97.50161680090241,None,95.51621558354236,None,95.51621558354236,None,95.51621558354236,None,tester,001,2020_Aug_06_2138,sonority,2020.1.3,59.96870737812968,
trainingaudio/11_tokiko2.wav,trainingaudio/11_tokiko1.wav,pngimages/11_compass.png,2,,,,,,,,,0,21,21,21,,,,,,,,,,,,,,,,,,,,,,,,,,,,,,,,,,,98.28534140845295,None,98.28723663743585,99.30303763737902,99.26963155670092,None,99.26946851739194,None,98.28723663743585,99.30303763737902,99.26963155670092,100.27059438778087,100.27059438778087,None,f,0.07733231619931757,100.27059438778087,None,98.28723663743585,None,98.28723663743585,None,98.28723663743585,None,tester,001,2020_Aug_06_2138,sonority,2020.1.3,59.96870737812968,
trainingaudio/02_pitito3.wav,trainingaudio/02_pitito2.wav,pngimages/02_pallet.png,1,,,,,,,,,0,22,22,22,,,,,,,,,,,,,,,,,,,,,,,,,,,,,,,,,,,100.40366238250863,None,100.40389021462761,101.40479338774458,101.38813641248271,None,101.38800055894535,None,100.40389021462761,101.40479338774458,101.38813641248271,102.38892744411714,102.38892744411714,None,f,0.3850723444484174,102.38892744411714,None,100.40389021462761,None,100.40389021462761,None,100.40389021462761,None,tester,001,2020_Aug_06_2138,sonority,2020.1.3,59.96870737812968,
trainingaudio/03_kikita2.wav,trainingaudio/03_kikita3.wav,pngimages/03_box.png,2,,,,,,,,,0,23,23,23,,,,,,,,,,,,,,,,,,,,,,,,,,,,,,,,,,,102.82258522009943,None,102.8240028093569,103.82387027842924,103.8071948015131,None,103.80641555029433,None,102.8240028093569,103.82387027842924,103.8071948015131,104.80786500731483,104.80786500731483,None,f,0.17723187990486622,104.80786500731483,None,102.8240028093569,None,102.8240028093569,None,102.8240028093569,None,tester,001,2020_Aug_06_2138,sonority,2020.1.3,59.96870737812968,
trainingaudio/01_kitipi1.wav,trainingaudio/01_kitipi3.wav,pngimages/01_gift.png,1,,,,,,,,,0,24,24,24,,,,,,,,,,,,,,,,,,,,,,,,,,,,,,,,,,,105.04050142725464,None,105.04318882059306,106.05873042251915,106.02562489616685,None,106.0253176210681,None,105.04318882059306,106.05873042251915,106.02562489616685,107.02681352035142,107.02681352035142,None,f,0.28026423091068864,107.02681352035142,None,105.04318882059306,None,105.04318882059306,None,105.04318882059306,None,tester,001,2020_Aug_06_2138,sonority,2020.1.3,59.96870737812968,
trainingaudio/27_pakapa1.wav,trainingaudio/27_pakapa2.wav,pngimages/27_kiwi.png,1,,,,,,,,,0,25,25,25,,,,,,,,,,,,,,,,,,,,,,,,,,,,,,,,,,,107.35968177497853,None,107.36298651294783,108.37767931306735,108.36076935869642,None,108.36095482634846,None,107.36298651294783,108.37767931306735,108.36076935869642,109.36213167011738,109.36213167011738,None,f,0.2389085649047047,109.36213167011738,None,107.36298651294783,None,107.36298651294783,None,107.36298651294783,None,tester,001,2020_Aug_06_2138,sonority,2020.1.3,59.96870737812968,
trainingaudio/22_kakoki2.wav,trainingaudio/22_kakoki1.wav,pngimages/22_egg.png,2,,,,,,,,,0,26,26,26,,,,,,,,,,,,,,,,,,,,,,,,,,,,,,,,,,,109.69418412342202,None,109.69291545217857,110.69622985599563,110.67908806703053,None,110.6788570630597,None,109.69291545217857,110.69622985599563,110.67908806703053,111.68007090967149,111.68007090967149,None,f,0.15811911900527775,111.68007090967149,None,109.69291545217857,None,109.69291545217857,None,109.69291545217857,None,tester,001,2020_Aug_06_2138,sonority,2020.1.3,59.96870737812968,
trainingaudio/12_pokika3.wav,trainingaudio/12_pokika2.wav,pngimages/12_pie.png,1,,,,,,,,,0,27,27,27,,,,,,,,,,,,,,,,,,,,,,,,,,,,,,,,,,,111.92896233254578,None,111.93581655621529,112.94783797254786,112.93128785258159,None,112.93087145651225,None,111.93581655621529,112.94783797254786,112.93128785258159,113.93214873666875,113.93214873666875,None,f,0.3117548443842679,113.93214873666875,None,111.93581655621529,None,111.93581655621529,None,111.93581655621529,None,tester,001,2020_Aug_06_2138,sonority,2020.1.3,59.96870737812968,
trainingaudio/26_kapako1.wav,trainingaudio/26_kapako3.wav,pngimages/26_pineapple.png,1,,,,,,,,,0,28,28,28,,,,,,,,,,,,,,,,,,,,,,,,,,,,,,,,,,,114.31481355056167,None,114.31134252622724,115.31751181837171,115.30027752183378,124.30840419279411,115.30158704740461,None,114.31134252622724,115.31751181837171,115.30027752183378,116.30142536736093,116.30142536736093,124.30840419279411,None,,116.30142536736093,124.30840419279411,114.31134252622724,None,114.31134252622724,None,114.31134252622724,None,tester,001,2020_Aug_06_2138,sonority,2020.1.3,59.96870737812968,
trainingaudio/03_kikita3.wav,trainingaudio/03_kikita2.wav,pngimages/03_box.png,1,,,,,,,,,0,29,29,29,,,,,,,,,,,,,,,,,,,,,,,,,,,,,,,,,,,124.50572427548468,None,124.51306391693652,125.52673309575766,125.51002854504623,None,125.50957099266816,None,124.51306391693652,125.52673309575766,125.51002854504623,126.51195194153115,126.4938393922057,134.50144915492274,None,,126.4938393922057,134.50144915492274,124.51306391693652,124.51306391693652,124.51306391693652,124.51306391693652,124.51306391693652,124.51306391693652,tester,001,2020_Aug_06_2138,sonority,2020.1.3,59.96870737812968,
trainingaudio/25_tapapi3.wav,trainingaudio/25_tapapi1.wav,pngimages/25_apple.png,2,,,,,,,,,0,30,30,30,,,,,,,,,,,,,,,,,,,,,,,,,,,,,,,,,,,134.5836658560438,None,134.5856866685208,135.5935199589003,135.57307471567765,144.57752450508997,135.57451035326812,None,134.5856866685208,135.5935199589003,135.57307471567765,136.58625001902692,136.56825300934725,144.57752450508997,None,,136.56825300934725,144.57752450508997,134.5856866685208,134.5856866685208,134.5856866685208,134.5856866685208,134.5856866685208,134.5856866685208,tester,001,2020_Aug_06_2138,sonority,2020.1.3,59.96870737812968,
